timestamp,frame_id,track_id,pos_x,pos_y,vel_x,vel_y,accel_x,accel_y
0.0,0,1,8.957460403442383,12.271767616271973,0.0,0.0,0.0,0.0
0.0,0,2,12.443053245544434,17.593271255493164,0.0,0.0,0.0,0.0
0.0,0,3,8.074782371520996,32.49850082397461,0.0,0.0,0.0,0.0
0.0,0,4,4.269636631011963,32.33497619628906,0.0,0.0,0.0,0.0
0.0,0,5,-2.2159838676452637,21.15478515625,0.0,0.0,0.0,0.0
0.0,0,6,-4.9219794273376465,-9.45437240600586,0.0,0.0,0.0,0.0
0.0,0,7,0.19875316321849823,22.936134338378906,0.0,0.0,0.0,0.0
0.0,0,8,-6.818272113800049,-16.536352157592773,0.0,0.0,0.0,0.0
0.0,0,9,78.21795654296875,101.87637329101562,0.0,0.0,0.0,0.0
0.07142857142857142,1,1,9.2686767578125,12.452007293701172,4.357028961181641,2.523355484008789,0.0,0.0
0.07142857142857142,1,2,12.64334487915039,17.681018829345703,2.8040828704833984,1.2284660339355469,0.0,0.0
0.07142857142857142,1,3,8.07696533203125,32.49985885620117,0.030561447143554688,0.019012451171875,0.0,0.0
0.07142857142857142,1,4,4.267158508300781,32.33504104614258,-0.03469371795654297,0.00090789794921875,0.0,0.0
0.07142857142857142,1,5,-2.2528276443481445,21.405929565429688,-0.515812873840332,3.516021728515625,0.0,0.0
0.07142857142857142,1,6,-4.769059658050537,-9.14023494720459,2.1408767700195312,4.397924423217773,0.0,0.0
0.07142857142857142,1,7,0.16569426655769348,23.42220115661621,-0.4628245532512665,6.804935455322266,0.0,0.0
0.07142857142857142,1,8,-7.006135940551758,-16.85616683959961,-2.630093574523926,-4.477405548095703,0.0,0.0
0.07142857142857142,1,9,78.2100830078125,101.86555480957031,-0.1102294921875,-0.151458740234375,0.0,0.0
0.14285714285714285,2,1,9.6951904296875,12.77198600769043,5.97119140625,4.479701995849609,0.0,0.0
0.14285714285714285,2,2,12.91164779663086,17.803613662719727,3.7562408447265625,1.7163276672363281,0.0,0.0
0.14285714285714285,2,3,8.07400894165039,32.50082778930664,-0.04138946533203125,0.0135650634765625,0.0,0.0
0.14285714285714285,2,4,4.2763752937316895,32.33723068237305,0.12903499603271484,0.0306549072265625,0.0,0.0
0.14285714285714285,2,5,-2.393144130706787,21.720905303955078,-1.964430809020996,4.409660339355469,0.0,0.0
0.14285714285714285,2,6,-4.816249847412109,-9.041333198547363,-0.6606626510620117,1.3846244812011719,0.0,0.0
0.14285714285714285,2,7,-0.130320742726326,23.807401657104492,-4.144210129976273,5.3928070068359375,0.0,0.0
0.14285714285714285,2,8,-7.027503967285156,-16.861534118652344,-0.2991523742675781,-0.07514190673828125,0.0,0.0
0.14285714285714285,2,9,78.21012115478516,101.8685531616211,0.0005340576171875,0.0419769287109375,0.0,0.0
0.21428571428571427,3,1,9.93350601196289,12.84841251373291,3.3364181518554688,1.0699710845947266,0.0,0.0
0.21428571428571427,3,2,13.137808799743652,17.913387298583984,3.1662540435791016,1.5368309020996094,0.0,0.0
0.21428571428571427,3,3,8.072643280029297,32.50203323364258,-0.0191192626953125,0.016876220703125,0.0,0.0
0.21428571428571427,3,4,4.355216026306152,32.26655197143555,1.1037702560424805,-0.989501953125,0.0,0.0
0.21428571428571427,3,5,-2.366326332092285,22.151809692382812,0.37544918060302734,6.032661437988281,0.0,0.0
0.21428571428571427,3,6,-4.671584129333496,-8.785627365112305,2.025320053100586,3.5798816680908203,0.0,0.0
0.21428571428571427,3,7,-0.3449060022830963,24.34440803527832,-3.0041936337947845,7.518089294433594,0.0,0.0
0.21428571428571427,3,8,-6.984830856323242,-16.824949264526367,0.5974235534667969,0.5121879577636719,0.0,0.0
0.21428571428571427,3,9,78.20882415771484,101.86801147460938,-0.018157958984375,-0.0075836181640625,0.0,0.0
0.2857142857142857,4,1,10.245455741882324,13.009674072265625,4.36729621887207,2.257661819458008,0.0,0.0
0.2857142857142857,4,2,13.395047187805176,18.052568435668945,3.601337432861328,1.9485359191894531,0.0,0.0
0.2857142857142857,4,3,8.071562767028809,32.5032844543457,-0.015127182006835938,0.01751708984375,0.0,0.0
0.2857142857142857,4,4,4.392899513244629,32.23141860961914,0.5275688171386719,-0.4918670654296875,0.0,0.0
0.2857142857142857,4,5,-2.3535592555999756,22.43351936340332,0.17873907089233398,3.9439353942871094,0.0,0.0
0.2857142857142857,4,6,-4.694238185882568,-8.664263725280762,-0.3171567916870117,1.6990909576416016,0.0,0.0
0.2857142857142857,4,7,-0.37686771154403687,24.931974411010742,-0.4474639296531677,8.225929260253906,0.0,0.0
0.2857142857142857,4,8,-6.922185897827148,-16.727205276489258,0.8770294189453125,1.3684158325195312,0.0,0.0
0.2857142857142857,4,9,78.20862579345703,101.8682861328125,-0.002777099609375,0.00384521484375,0.0,0.0
0.35714285714285715,5,1,10.334721565246582,12.957071304321289,1.2497215270996094,-0.7364387512207031,0.0,0.0
0.35714285714285715,5,2,13.656643867492676,18.186176300048828,3.662353515625,1.8705101013183594,0.0,0.0
0.35714285714285715,5,3,8.071748733520508,32.501529693603516,0.0026035308837890625,-0.024566650390625,0.0,0.0
0.35714285714285715,5,4,4.394582748413086,32.21504211425781,0.023565292358398438,-0.22927093505859375,0.0,0.0
0.35714285714285715,5,5,-2.2840089797973633,22.865737915039062,0.9737038612365723,6.051059722900391,0.0,0.0
0.35714285714285715,5,6,-4.677769660949707,-8.5276517868042,0.2305593490600586,1.912567138671875,0.0,0.0
0.35714285714285715,5,8,-6.979779243469238,-16.807098388671875,-0.8063068389892578,-1.1185035705566406,0.0,0.0
0.35714285714285715,5,9,78.2103042602539,101.87066650390625,0.02349853515625,0.0333251953125,0.0,0.0
0.42857142857142855,6,1,10.3677339553833,12.817936897277832,0.4621734619140625,-1.9478816986083984,0.0,0.0
0.42857142857142855,6,2,13.876134872436523,18.288501739501953,3.072874069213867,1.43255615234375,0.0,0.0
0.42857142857142855,6,3,8.071478843688965,32.50065612792969,-0.0037784576416015625,-0.01222991943359375,0.0,0.0
0.42857142857142855,6,4,4.316025257110596,32.27946472167969,-1.0998048782348633,0.90191650390625,0.0,0.0
0.42857142857142855,6,5,-2.379164695739746,23.07963752746582,-1.3321800231933594,2.9945945739746094,0.0,0.0
0.42857142857142855,6,6,-4.679642200469971,-8.365967750549316,-0.026215553283691406,2.2635765075683594,0.0,0.0
0.42857142857142855,6,8,-6.921965599060059,-16.702476501464844,0.8093910217285156,1.4647064208984375,0.0,0.0
0.42857142857142855,6,9,78.2101821899414,101.87039184570312,-0.001708984375,-0.00384521484375,0.0,0.0
0.42857142857142855,6,11,-3.055487632751465,12.782095909118652,0.0,0.0,0.0,0.0
0.5,7,1,10.991890907287598,13.370314598083496,8.738197326660156,7.733287811279297,0.0,0.0
0.5,7,2,14.136045455932617,18.426822662353516,3.6387481689453125,1.936492919921875,0.0,0.0
0.5,7,3,8.072033882141113,32.4998664855957,0.007770538330078125,-0.01105499267578125,0.0,0.0
0.5,7,4,4.293428421020508,32.308448791503906,-0.31635570526123047,0.4057769775390625,0.0,0.0
0.5,7,5,-2.319854974746704,23.452987670898438,0.8303360939025879,5.226902008056641,0.0,0.0
0.5,7,6,-4.6800336837768555,-8.143165588378906,-0.005480766296386719,3.119230270385742,0.0,0.0
0.5,7,8,-6.7659430503845215,-16.424558639526367,2.1843156814575195,3.890850067138672,0.0,0.0
0.5,7,9,78.21080780029297,101.87112426757812,0.008758544921875,0.01025390625,0.0,0.0
0.5,7,11,-2.858182191848755,13.176044464111328,2.7622761726379395,5.515279769897461,0.0,0.0
0.5714285714285714,8,1,11.167826652526855,13.382323265075684,2.4631004333496094,0.168121337890625,0.0,0.0
0.5714285714285714,8,2,14.401605606079102,18.559328079223633,3.7178421020507812,1.8550758361816406,0.0,0.0
0.5714285714285714,8,3,8.072114944458008,32.49922180175781,0.0011348724365234375,-0.00902557373046875,0.0,0.0
0.5714285714285714,8,4,4.270748615264893,32.32132339477539,-0.3175172805786133,0.18024444580078125,0.0,0.0
0.5714285714285714,8,5,-2.4163124561309814,23.76460838317871,-1.3504047393798828,4.362689971923828,0.0,0.0
0.5714285714285714,8,6,-4.510064601898193,-7.715116024017334,2.3795671463012695,5.992693901062012,0.0,0.0
0.5714285714285714,8,8,-6.832601547241211,-16.47760772705078,-0.9332189559936523,-0.7426872253417969,0.0,0.0
0.5714285714285714,8,9,78.21340942382812,101.87492370605469,0.0364227294921875,0.053192138671875,0.0,0.0
0.5714285714285714,8,11,-2.8279426097869873,13.386571884155273,0.4233541488647461,2.9473838806152344,0.0,0.0
0.6428571428571429,9,1,11.22563362121582,13.269633293151855,0.8092975616455078,-1.5776596069335938,0.0,0.0
0.6428571428571429,9,2,14.641654014587402,18.68818473815918,3.360677719116211,1.8039932250976562,0.0,0.0
0.6428571428571429,9,3,8.07009220123291,32.49991226196289,-0.028318405151367188,0.00966644287109375,0.0,0.0
0.6428571428571429,9,4,4.277953147888184,32.32033920288086,0.10086345672607422,-0.0137786865234375,0.0,0.0
0.6428571428571429,9,5,-2.4317309856414795,24.044313430786133,-0.21585941314697266,3.9158706665039062,0.0,0.0
0.6428571428571429,9,6,-4.508777618408203,-7.503701686859131,0.01801776885986328,2.9598007202148438,0.0,0.0
0.6428571428571429,9,8,-6.920766830444336,-16.558629989624023,-1.23431396484375,-1.1343116760253906,0.0,0.0
0.6428571428571429,9,9,78.21463775634766,101.87648010253906,0.0171966552734375,0.02178955078125,0.0,0.0
0.6428571428571429,9,11,-2.805870532989502,13.827881813049316,0.3090090751647949,6.178339004516602,0.0,0.0
0.6428571428571429,9,7,-0.8711082935333252,27.828289031982422,-1.3838736295700067,8.109680938720693,0.0,0.0
0.7142857142857143,10,1,11.237232208251953,13.132890701293945,0.16238021850585938,-1.9143962860107422,0.0,0.0
0.7142857142857143,10,2,14.793065071105957,18.70240592956543,2.1197547912597656,0.1990966796875,0.0,0.0
0.7142857142857143,10,3,8.074213981628418,32.5003776550293,0.057704925537109375,0.0065155029296875,0.0,0.0
0.7142857142857143,10,4,4.276622295379639,32.321468353271484,-0.018631935119628906,0.01580810546875,0.0,0.0
0.7142857142857143,10,6,-4.430918216705322,-7.250574111938477,1.090031623840332,3.54378604888916,0.0,0.0
0.7142857142857143,10,9,78.21553802490234,101.87753295898438,0.012603759765625,0.014739990234375,0.0,0.0
0.7142857142857143,10,11,-2.7337307929992676,14.18803882598877,1.0099563598632812,5.042198181152344,0.0,0.0
0.7142857142857143,10,7,-1.2746641635894775,28.157089233398438,-5.649782180786133,4.603202819824219,0.0,0.0
0.7857142857142857,11,1,11.379597663879395,13.112202644348145,1.9931163787841797,-0.28963279724121094,0.0,0.0
0.7857142857142857,11,2,14.922948837280273,18.683273315429688,1.8183727264404297,-0.2678565979003906,0.0,0.0
0.7857142857142857,11,3,8.07400131225586,32.50308609008789,-0.0029773712158203125,0.0379180908203125,0.0,0.0
0.7857142857142857,11,4,4.279303550720215,32.3189582824707,0.037537574768066406,-0.0351409912109375,0.0,0.0
0.7857142857142857,11,6,-4.431994438171387,-6.988244533538818,-0.015067100524902344,3.672614097595215,0.0,0.0
0.7857142857142857,11,9,78.216064453125,101.87826538085938,0.0073699951171875,0.01025390625,0.0,0.0
0.7857142857142857,11,11,-2.636430501937866,14.574975967407227,1.3622040748596191,5.417119979858398,0.0,0.0
0.7857142857142857,11,7,-1.5937838554382324,28.586654663085938,-4.467675685882568,6.013916015625,0.0,0.0
0.8571428571428571,12,1,11.497879028320312,13.077316284179688,1.6559391021728516,-0.48840904235839844,0.0,0.0
0.8571428571428571,12,2,15.041463851928711,18.631305694580078,1.659210205078125,-0.7275466918945312,0.0,0.0
0.8571428571428571,12,3,8.07412338256836,32.50284957885742,0.001708984375,-0.0033111572265625,0.0,0.0
0.8571428571428571,12,4,4.267910003662109,32.330589294433594,-0.15950965881347656,0.16283416748046875,0.0,0.0
0.8571428571428571,12,6,-4.258993148803711,-6.627564430236816,2.422018051147461,5.049521446228027,0.0,0.0
0.8571428571428571,12,9,78.21650695800781,101.8786849975586,0.006195068359375,0.0058746337890625,0.0,0.0
0.8571428571428571,12,11,-2.6432852745056152,14.878372192382812,-0.09596681594848633,4.247547149658203,0.0,0.0
0.8571428571428571,12,7,-1.7997686862945557,28.98112678527832,-2.8837876319885254,5.522609710693359,0.0,0.0
0.8571428571428571,12,12,5.161105632781982,11.955144882202148,0.0,0.0,0.0,0.0
0.8571428571428571,12,13,6.771300315856934,10.420961380004883,0.0,0.0,0.0,0.0
0.9285714285714286,13,1,11.627693176269531,13.04734992980957,1.8173980712890625,-0.4195289611816406,0.0,0.0
0.9285714285714286,13,2,15.155016899108887,18.52659034729004,1.589742660522461,-1.4660148620605469,0.0,0.0
0.9285714285714286,13,3,8.076128959655762,32.50236511230469,0.028078079223632812,-0.00678253173828125,0.0,0.0
0.9285714285714286,13,4,4.26653528213501,32.343650817871094,-0.01924610137939453,0.182861328125,0.0,0.0
0.9285714285714286,13,6,-4.084962844848633,-6.265559196472168,2.4364242553710938,5.068073272705078,0.0,0.0
0.9285714285714286,13,9,78.21658325195312,101.87860870361328,0.001068115234375,-0.001068115234375,0.0,0.0
0.9285714285714286,13,11,-2.6578004360198975,15.140365600585938,-0.20321226119995117,3.66790771484375,0.0,0.0
0.9285714285714286,13,7,-1.8456355333328247,29.441923141479492,-0.6421358585357666,6.451148986816406,0.0,0.0
0.9285714285714286,13,12,5.21544885635376,12.000547409057617,0.7608051300048828,0.6356353759765625,0.0,0.0
0.9285714285714286,13,13,6.907580375671387,10.499229431152344,1.9079208374023438,1.0957527160644531,0.0,0.0
0.9285714285714286,13,5,-1.7497174739837646,25.610427856445312,2.387047290802002,5.481400489807129,0.0,0.0
1.0,14,1,11.593860626220703,12.834351539611816,0.3653078159535297,-2.048948106882427,-4.792578271431448,-5.804991665528964
1.0,14,2,15.25181770324707,18.395313262939453,0.43335451683405535,-2.8187187325721315,-9.02926636365504,-14.225832063148632
1.0,14,3,8.074577331542969,32.503780364990234,0.010365314892745336,0.028295671678152667,-0.0019766710224702723,0.12288151583288263
1.0,14,4,4.280537128448486,32.35807800292969,0.39864285523236004,-0.08702892375723102,2.9733308897119106,-1.5748358410533478
1.0,14,6,-3.9697251319885254,-5.974377632141113,2.670765717664483,5.329436557205467,7.276150498934357,5.078047186361105
1.0,14,9,78.2171401977539,101.87921142578125,-0.019247013499309594,-0.023881347411321335,-0.19448552579921685,-0.2290846995833055
1.0,14,11,-2.56927227973938,15.520602226257324,1.239394187927246,5.323312759399414,0.0,0.0
1.0,14,7,-2.1843535900115967,29.801389694213867,-4.532559224729948,3.677561553806663,-7.944331044914619,-13.843299144593542
1.0,14,12,5.24063777923584,12.00877857208252,0.3526449203491211,0.11523628234863281,0.0,0.0
1.0,14,13,7.360927104949951,10.833922386169434,6.346854209899902,4.685701370239258,0.0,0.0
1.0714285714285714,15,1,11.882893562316895,13.058740615844727,1.1805010042499116,-0.8364428689136983,-0.5638174576756263,0.06852145839923071
1.0714285714285714,15,2,15.292435646057129,18.235092163085938,0.08930593318470531,-3.4819147088568467,-8.580885832485844,-14.277936136620514
1.0714285714285714,15,3,8.07191276550293,32.504207611083984,-0.019564242344572554,0.02301617525362345,-0.1393972275062682,0.07945224038908867
1.0714285714285714,15,4,4.398486137390137,32.23802947998047,1.1145807425940137,-0.7911444555800502,5.631528402225848,-4.3680236877780265
1.0714285714285714,15,6,-3.8723278045654297,-5.685510158538818,2.42776641728632,4.604584277185657,4.702063954853415,0.23258572717967
1.0714285714285714,15,9,78.21749114990234,101.87939453125,-0.009499519019844072,-0.008640785083332247,-0.11061812717818065,-0.10358389830029
1.0714285714285714,15,11,-2.614288091659546,15.746827125549316,-0.6302213668823242,3.1671485900878906,0.0,0.0
1.0714285714285714,15,7,-2.4001874923706055,30.164897918701172,-4.287460418701315,3.7453673815994173,-5.562149776809829,-10.879435565616834
1.0714285714285714,15,12,5.108017921447754,11.883261680603027,-1.8566780090332031,-1.7572364807128906,0.0,0.0
1.0714285714285714,15,13,7.570268154144287,10.984672546386719,2.930774688720703,2.110502243041992,0.0,0.0
1.1428571428571428,16,1,12.187864303588867,13.225028038024902,2.502742632401901,0.7217719782251406,4.727555273045405,6.174228294702275
1.1428571428571428,16,2,15.345186233520508,18.085508346557617,-0.13427329163303992,-3.732812698230579,-7.734656370842771,-12.484751053584901
1.1428571428571428,16,3,8.048677444458008,32.50703430175781,-0.13885069856378826,0.025486008893657874,-0.5804290191320979,0.06496020164161248
1.1428571428571428,16,4,4.372862339019775,32.2794303894043,1.0920042575694116,-0.7978356453928372,4.772221805463155,-3.9094274989801288
1.1428571428571428,16,6,-3.810938835144043,-5.439126968383789,2.0479666239575667,3.964907358994115,2.3604981747028706,-2.9312263990298715
1.1428571428571428,16,9,78.2188720703125,101.88146209716797,-0.0049591790058249536,-0.00583820557204355,-0.07921905671062086,-0.0876148237305692
1.1428571428571428,16,11,-2.628145217895508,15.992300987243652,-0.1939997673034668,3.436634063720703,0.0,0.0
1.1428571428571428,16,7,-2.81666898727417,30.43854331970215,-4.242319651254092,3.8633041651461255,-2.794541194922637,-7.246000101962551
1.1428571428571428,16,12,5.010475158691406,11.734585762023926,-1.3655986785888672,-2.081462860107422,0.0,0.0
1.1428571428571428,16,13,7.918765544891357,11.089224815368652,4.878963470458984,1.4637317657470703,0.0,0.0
1.1428571428571428,16,14,-0.9990454912185669,13.002510070800781,0.0,0.0,0.0,0.0
1.2142857142857142,17,1,12.132790565490723,12.994656562805176,2.5417296188809155,0.8054245607485357,5.177222325251703,6.838553690922221
1.2142857142857142,17,2,15.38458251953125,17.93735694885254,-0.10146808036904598,-3.5214907316300255,-5.658156141795779,-8.754257941497537
1.2142857142857142,17,3,8.037851333618164,32.50590896606445,-0.22779246684751586,0.010819667185112285,-0.8549798238569999,-0.018323895438588624
1.2142857142857142,17,4,4.38723611831665,32.285152435302734,0.723405132985742,-0.442547935446231,2.12571979060496,-1.5759100916396533
1.2142857142857142,17,6,-3.7686619758605957,-5.173894882202148,1.088597161038282,3.2068559162297907,-2.700590767531908,-6.479932418476006
1.2142857142857142,17,9,78.21656799316406,101.87834167480469,-0.010603443310216535,-0.01406506467584941,-0.07972100105842454,-0.09610405754597534
1.2142857142857142,17,11,-2.595263957977295,16.284223556518555,0.46033763885498047,4.086915969848633,0.0,0.0
1.2142857142857142,17,7,-2.9124221801757812,30.829801559448242,-3.216242976216475,4.269237010659219,2.9507040164169855,-3.397262632696867
1.2142857142857142,17,12,5.193924427032471,11.826302528381348,2.5682897567749023,1.2840347290039062,0.0,0.0
1.2142857142857142,17,13,8.134134292602539,11.260616302490234,3.015162467956543,2.3994808197021484,0.0,0.0
1.2142857142857142,17,14,-0.9579088687896729,13.343831062316895,0.5759127140045166,4.778493881225586,0.0,0.0
1.2857142857142858,18,1,12.087904930114746,12.768575668334961,1.7222131945208572,-0.19876020302702058,2.001314861322373,2.8671656407681922
1.2857142857142858,18,2,15.45199203491211,17.797204971313477,0.1707818669170711,-3.0076059337755368,-2.928165019128213,-4.19339951370888
1.2857142857142858,18,3,8.057496070861816,32.5009880065918,-0.1303632401213454,-0.026688973388808896,-0.3648557658168882,-0.17698676146288794
1.2857142857142858,18,4,4.376351356506348,32.345462799072266,0.24578413646466044,0.18377513495530193,-0.5664725852647757,1.499975865183794
1.2857142857142858,18,6,-3.679048538208008,-4.847838878631592,0.7050215644773777,3.292750879410481,-4.192316746460116,-5.373022795083068
1.2857142857142858,18,9,78.21593475341797,101.87772369384766,-0.015304049195734824,-0.018872712872011383,-0.07924797476120482,-0.09195347129489052
1.2857142857142858,18,11,-2.5809500217437744,16.557374954223633,0.2003951072692871,3.8241195678710938,0.0,0.0
1.2857142857142858,18,7,-3.117676258087158,31.034074783325195,-2.6247786809960836,3.962090131475996,5.439361037052447,-2.95633658192913
1.2857142857142858,18,12,5.311046123504639,11.906684875488281,1.6397037506103516,1.1253528594970703,0.0,0.0
1.2857142857142858,18,13,8.414674758911133,11.582564353942871,3.9275665283203125,4.507272720336914,0.0,0.0
1.2857142857142858,18,14,-0.8483880162239075,13.805546760559082,1.5332919359207153,6.464019775390625,0.0,0.0
1.3571428571428572,19,1,12.243578910827637,12.858268737792969,1.9097992931555305,0.2516269014971279,3.640561306638211,5.414031386914808
1.3571428571428572,19,2,15.519352912902832,17.632478713989258,0.5948313029743,-2.4341244433060996,0.07521123823790271,0.1391241975978853
1.3571428571428572,19,3,8.064352035522461,32.49897003173828,-0.009674235566550714,-0.049042790424092514,0.1801196947477945,-0.242361669986601
1.3571428571428572,19,4,4.388881206512451,32.35628890991211,-0.03202887152395989,0.5590186223764636,-1.9275435195489607,3.0880620543113504
1.3571428571428572,19,6,-3.497936248779297,-4.444720268249512,0.9527584173700444,4.089517245265494,-2.9935614802599027,-1.2859002739535637
1.3571428571428572,19,9,78.21431732177734,101.87571716308594,-0.023649112132398155,-0.028002176529552895,-0.09636284323467627,-0.10804130588780046
1.3571428571428572,19,11,-2.6340267658233643,16.756879806518555,-0.7430744171142578,2.7930679321289062,0.0,0.0
1.3571428571428572,19,7,-3.4896557331085205,31.429513931274414,-2.961787422555002,4.323947978367448,3.940470824504153,-0.17678771155578102
1.3571428571428572,19,12,5.442037582397461,12.010148048400879,1.8338804244995117,1.4484844207763672,0.0,0.0
1.3571428571428572,19,13,8.71655559539795,11.660506248474121,4.22633171081543,1.0911865234375,0.0,0.0
1.3571428571428572,19,14,-0.7880160808563232,14.221370697021484,0.8452070951461792,5.821535110473633,0.0,0.0
1.3571428571428572,19,15,4.240333557128906,34.087310791015625,0.0,0.0,0.0,0.0
1.4285714285714286,20,1,12.341395378112793,12.813569068908691,1.773413612592055,0.18110015629247797,2.9276023220335072,4.6875463795461005
1.4285714285714286,20,2,15.558475494384766,17.43009376525879,0.9267791421923997,-2.097159900556606,2.3352015750858026,2.914931778214963
1.4285714285714286,20,3,8.065569877624512,32.49789810180664,0.07921644637227183,-0.056895446553696945,0.5543282821946419,-0.23949518486653518
1.4285714285714286,20,4,4.389803886413574,32.346763610839844,-0.11887128454607336,0.5082426075961853,-1.9924518660482475,2.4215383860501905
1.4285714285714286,20,6,-3.327073097229004,-4.08220911026001,1.5393565888977965,4.887874846344989,-0.31559939549876354,2.428963384537281
1.4285714285714286,20,9,78.21382904052734,101.87491607666016,-0.021715692245596,-0.025171184332547704,-0.06345557687080677,-0.06449923124762141
1.4285714285714286,20,11,-2.804044008255005,16.838117599487305,-0.9290291317068154,2.0441190114828314,-2.905348548582281,-6.700619842371738
1.4285714285714286,20,7,-3.796792507171631,31.69723129272461,-3.5879016860587827,4.30492258818278,0.9672151798336618,0.4978435581568836
1.4285714285714286,20,12,5.426487445831299,11.983783721923828,-0.21770191192626953,-0.36910057067871094,0.0,0.0
1.4285714285714286,20,13,8.940897941589355,11.701083183288574,3.1407928466796875,0.5680770874023438,0.0,0.0
1.4285714285714286,20,14,-0.7749332189559937,14.620111465454102,0.18316006660461426,5.582370758056641,0.0,0.0
1.4285714285714286,20,15,4.199351787567139,34.076637268066406,-0.5737447738647461,-0.1494293212890625,0.0,0.0
1.4285714285714286,20,16,4.550357818603516,32.168907165527344,0.0,0.0,0.0,0.0
1.5,21,2,15.593008995056152,17.224380493164062,0.963073023603739,-2.12357682512101,2.6757966324931077,3.334954803105969
1.5,21,3,8.065276145935059,32.498809814453125,0.12488989824422014,-0.04270718192360104,0.711457075097006,-0.14295618854040748
1.5,21,4,4.405924320220947,32.33404541015625,-0.17260323458628596,0.34936868531122917,-2.051016776390341,1.4552128687767085
1.5,21,6,-3.256377935409546,-3.842034339904785,1.653253111234777,4.788391219624648,0.24968486793564326,1.863844886384655
1.5,21,9,78.21260833740234,101.87322998046875,-0.021879763225373702,-0.026414387266510613,-0.047425256175949726,-0.049865810878932736
1.5,21,11,-2.5755369663238525,17.432485580444336,-0.23903039222151098,3.633283478222351,-0.14511859327067583,0.8117084834009967
1.5,21,7,-3.990621566772461,31.971073150634766,-3.784909925774274,4.067191048604953,-0.45736388780771536,-0.1625561205452743
1.5,21,12,5.5103864669799805,12.028964042663574,1.174586296081543,0.6325244903564453,0.0,0.0
1.5,21,13,9.257893562316895,11.937301635742188,4.437938690185547,3.307058334350586,0.0,0.0
1.5,21,14,-0.7403231263160706,15.007780075073242,0.48454129695892334,5.427360534667969,0.0,0.0
1.5,21,15,4.2032790184021,34.0789680480957,0.054981231689453125,0.03263092041015625,0.0,0.0
1.5,21,16,4.584023952484131,32.156410217285156,0.4713258743286133,-0.174957275390625,0.0,0.0
1.5714285714285714,22,2,15.710738182067871,17.076011657714844,1.2282474583190712,-2.097156868680926,3.482267451202483,3.3663174239401785
1.5714285714285714,22,3,8.065244674682617,32.500614166259766,0.13669533483421947,-0.01379426528152111,0.702747794238094,0.005188870514536165
1.5714285714285714,22,4,4.410585880279541,32.3333625793457,-0.1866441793691029,0.19446190162296678,-1.8729710909755344,0.6037903177253883
1.5714285714285714,22,6,-3.222918748855591,-3.686577796936035,1.1448052314751345,3.6489406297489384,-2.0822847179578265,-3.319497407891213
1.5714285714285714,22,9,78.21187591552734,101.87222290039062,-0.022327012346051618,-0.029159634761027727,-0.04248966698417019,-0.05602146261739098
1.5714285714285714,22,11,-2.3413374423980713,17.910587310791016,1.572336856566108,5.88339068327443,7.364436502729932,10.65922747622109
1.5714285714285714,22,7,-4.01577615737915,32.27200698852539,-2.89410403824811,3.878109238258513,2.342510034176097,-0.8700244974522049
1.5714285714285714,22,12,5.499264717102051,11.97422981262207,-0.15570449829101562,-0.7662792205810547,0.0,0.0
1.5714285714285714,22,13,9.507649421691895,12.135783195495605,3.49658203125,2.7787418365478516,0.0,0.0
1.5714285714285714,22,14,-0.6286987066268921,15.48110294342041,1.5627418756484985,6.626520156860352,0.0,0.0
1.5714285714285714,22,15,4.194207191467285,34.076812744140625,-0.12700557708740234,-0.03017425537109375,0.0,0.0
1.5714285714285714,22,16,4.59778356552124,32.152591705322266,0.19263458251953125,-0.05345916748046875,0.0,0.0
1.6428571428571428,23,2,15.829065322875977,16.91995620727539,1.605998009638022,-2.112781548152398,4.518490568365121,2.850006247358161
1.6428571428571428,23,3,8.064294815063477,32.500614166259766,0.11478984525741255,0.007651982723870961,0.535702254198052,0.10503820512361922
1.6428571428571428,23,4,4.395816326141357,32.32901382446289,-0.28706529339455594,0.038826663709430206,-2.0560184632671263,-0.16159752471285782
1.6428571428571428,23,6,-3.0098626613616943,-3.308485507965088,1.7395641061755025,3.8279040634522192,0.9291481737996546,-1.8634828619768493
1.6428571428571428,23,9,78.21095275878906,101.87097930908203,-0.01876867175106656,-0.025649117888205775,-0.016720702266238157,-0.028073091732876886
1.6428571428571428,23,11,-2.4142744541168213,18.196775436401367,1.9337199033755166,6.531473396730137,8.30941971310901,12.046602135989204
1.6428571428571428,23,12,5.619854927062988,12.008580207824707,1.688262939453125,0.48090553283691406,0.0,0.0
1.6428571428571428,23,13,9.762028694152832,12.30921745300293,3.561309814453125,2.428079605102539,0.0,0.0
1.6428571428571428,23,14,-0.534352719783783,15.915205955505371,1.3208438158035278,6.077442169189453,0.0,0.0
1.6428571428571428,23,15,4.182811260223389,34.07268524169922,-0.15954303741455078,-0.0577850341796875,0.0,0.0
1.6428571428571428,23,16,5.071202278137207,32.08222961425781,6.627861976623535,-0.9850692749023438,0.0,0.0
1.7142857142857142,24,2,15.902705192565918,16.718345642089844,1.8348642094401904,-2.228070759026054,4.994947514023156,2.1281902501187533
1.7142857142857142,24,3,8.063263893127441,32.500465393066406,0.05787118036221005,0.021123200140543058,0.1941888069854851,0.15956746135427027
1.7142857142857142,24,4,4.379622936248779,32.32676696777344,-0.34046764772942234,-0.11014123887532219,-1.8784878588370084,-0.8696895367296543
1.7142857142857142,24,6,-2.8927829265594482,-3.037885904312134,2.07597018910428,3.856937305610014,2.4703528976967215,-1.23315703467312
1.7142857142857142,24,9,78.20893859863281,101.86851501464844,-0.01927652162436189,-0.026112967047743116,-0.007850727524441046,-0.016203157743636197
1.7142857142857142,24,11,-2.214043140411377,18.599550247192383,2.6054845018084776,7.02383845608018,9.769191826091054,12.508225614548847
1.7142857142857142,24,12,5.64971923828125,11.967145919799805,0.41810035705566406,-0.5800800323486328,0.0,0.0
1.7142857142857142,24,13,10.008807182312012,12.51921272277832,3.4548988342285156,2.9399337768554688,0.0,0.0
1.7142857142857142,24,14,-0.4743451178073883,16.295578002929688,0.8401064276695251,5.32520866394043,0.0,0.0
1.7142857142857142,24,15,4.160621643066406,34.06489181518555,-0.3106546401977539,-0.10910797119140625,0.0,0.0
1.7142857142857142,24,17,5.798196792602539,0.640350878238678,0.0,0.0,0.0,0.0
1.7142857142857142,24,5,-2.596198797225952,28.445024490356445,0.0,0.0,0.0,0.0
1.7857142857142858,25,2,16.045061111450195,16.51910972595215,2.157352043792446,-2.4559092611969136,5.591394630133044,0.9164477981711632
1.7857142857142858,25,3,8.064284324645996,32.49995422363281,0.007855793769301742,0.02246328852212092,-0.0932196161146303,0.14934807149781115
1.7857142857142858,25,4,4.3769073486328125,32.33445739746094,-0.2685108356026921,-0.1845531249457039,-1.118794610477647,-1.2320769508015519
1.7857142857142858,25,6,-2.8747951984405518,-2.8935165405273438,1.8247833200109944,3.1635898280347585,1.645710401045963,-3.627526295850341
1.7857142857142858,25,9,78.20745849609375,101.86695098876953,-0.018745120294432007,-0.023735935971689343,0.004671433392708619,0.006018955541876088
1.7857142857142858,25,11,-2.199495315551758,18.85698127746582,2.377454789455598,6.411395868025273,7.275637253017606,8.133532247931953
1.7857142857142858,25,12,5.814863681793213,12.088147163391113,2.3120222091674805,1.6940174102783203,0.0,0.0
1.7857142857142858,25,13,10.308874130249023,12.711516380310059,4.200937271118164,2.692251205444336,0.0,0.0
1.7857142857142858,25,14,-0.4305189549922943,16.690481185913086,0.6135662794113159,5.528644561767578,0.0,0.0
1.7857142857142858,25,15,4.115106105804443,34.05216979980469,-0.6372175216674805,-0.17810821533203125,0.0,0.0
1.7857142857142858,25,17,5.29682731628418,-0.05326113477349281,-7.019172668457031,-9.710568182170391,0.0,0.0
1.7857142857142858,25,5,-2.645909070968628,28.673065185546875,-0.6959438323974609,3.1925697326660156,0.0,0.0
1.7857142857142858,25,16,4.699040412902832,32.13873291015625,-2.605133056640625,0.3955230712890625,0.0,0.0
1.8571428571428572,26,2,16.18429183959961,16.36701774597168,2.378674713395056,-2.455255265009738,5.501621984728652,0.7046178920357337
1.8571428571428572,26,3,8.065411567687988,32.50111389160156,-0.03826185181371087,0.030550181256305292,-0.34960554448009085,0.17188996151501715
1.8571428571428572,26,4,4.371209621429443,32.3419075012207,-0.11847263541637076,-0.2230249749809456,-0.023242778547937586,-1.4467221179038394
1.8571428571428572,26,6,-2.671381711959839,-2.4627368450164795,1.7808205223830738,3.4539407610753527,0.739847649516268,-2.4451417373975577
1.8571428571428572,26,9,78.2087631225586,101.86893463134766,-0.004683484498855164,-0.0029914965279428055,0.06643507599322683,0.09612457137252194
1.8571428571428572,26,11,-2.1703648567199707,19.226572036743164,1.884762838655167,5.913073379429638,4.163172218414807,4.605173630711949
1.8571428571428572,26,12,5.978233814239502,12.173479080200195,1.3684474828955868,0.3788591711409332,0.08534411055901821,-0.8070664513705006
1.8571428571428572,26,13,10.589459419250488,12.905435562133789,3.831026581078102,3.1690475744918905,0.5946205363554163,3.4315811006670858
1.8571428571428572,26,14,-0.3634316623210907,17.1013126373291,0.9392220973968506,5.751640319824219,0.0,0.0
1.8571428571428572,26,15,4.126156806945801,34.05560302734375,0.1547098159790039,0.048065185546875,0.0,0.0
1.8571428571428572,26,17,4.598464012145996,-1.0162580013275146,-9.77708625793457,-13.481956131756306,0.0,0.0
1.8571428571428572,26,5,-2.755059242248535,28.94390869140625,-1.5281023979187012,3.79180908203125,0.0,0.0
1.8571428571428572,26,16,5.110328674316406,32.084598541259766,5.758035659790039,-0.7578811645507812,0.0,0.0
1.9285714285714286,27,2,16.275245666503906,16.225379943847656,2.2126480174938936,-2.228096527251751,3.7294109640795545,1.5360539543263618
1.9285714285714286,27,3,8.06769847869873,32.501976013183594,-0.06598091964566638,0.03288526920211726,-0.5007147407818234,0.1593020435792081
1.9285714285714286,27,4,4.352320194244385,32.333839416503906,-0.07270419899293376,-0.25427245470437515,0.4447135050253172,-1.4888243581732263
1.9285714285714286,27,6,-2.4416003227233887,-1.9538215398788452,2.159242361329477,4.753070984865455,1.5079516424731905,2.660428872834846
1.9285714285714286,27,9,78.20970916748047,101.8701400756836,0.011576520671063822,0.018936703826997723,0.12722589599130704,0.17793736522502412
1.9285714285714286,27,11,-2.189114570617676,19.556407928466797,0.889372551972614,5.201290235899845,-0.863369854087487,0.387102940743318
1.9285714285714286,27,12,5.98159646987915,12.080259323120117,1.0354416003194524,-0.22674951246480138,-1.7588357503477068,-3.6461532745244725
1.9285714285714286,27,13,10.82403564453125,13.068120002746582,4.003847703534991,3.2067499590295316,1.8251441235876527,3.4706258812160864
1.9285714285714286,27,14,-0.33558136224746704,17.514162063598633,0.3899042010307312,5.7798919677734375,0.0,0.0
1.9285714285714286,27,15,4.143726348876953,34.061180114746094,0.2459735870361328,0.0780792236328125,0.0,0.0
1.9285714285714286,27,17,4.148190498352051,-1.5957733392715454,-6.303829193115234,-8.11321473121643,0.0,0.0
1.9285714285714286,27,5,-2.7964606285095215,29.1997013092041,-0.5796194076538086,3.581096649169922,0.0,0.0
1.9285714285714286,27,16,4.743495941162109,32.124237060546875,-5.135658264160156,0.5549392700195312,0.0,0.0
2.0,28,3,8.070759773254395,32.50370407104492,-0.054594691722316874,0.02951625253712576,-0.4273786247525899,0.10708005587721393
2.0,28,4,4.340344429016113,32.32738494873047,-0.1322604669524685,-0.17395865132058314,0.18727662228900926,-0.8198295926971119
2.0,28,6,-2.505115270614624,-1.9169206619262695,1.3920665647749442,4.229076441826314,-1.90929821150084,0.6492063067198457
2.0,28,9,78.20948028564453,101.86973571777344,0.01766242488697746,0.026077612532611098,0.13408763687960676,0.18316994844936554
2.0,28,11,-2.169654607772827,19.8233585357666,-0.16103769800102052,3.986810761878939,-5.9655410023176465,-5.785185874317453
2.0,28,12,6.076210975646973,12.085525512695312,1.0860481023069215,-0.41149974936158845,-1.2770173236795057,-3.913282309542337
2.0,28,13,11.148426055908203,13.298983573913574,3.918026555057975,2.963804064712831,0.6620713136135071,1.3295752034828676
2.0,28,14,-0.24370358884334564,17.95195198059082,1.2862888276576996,6.129058837890625,0.0,0.0
2.0,28,15,4.152416706085205,34.06446075439453,0.12166500091552734,0.045928955078125,0.0,0.0
2.0,28,5,-2.8776066303253174,29.43986701965332,-1.1360440254211426,3.3623199462890625,0.0,0.0
2.0,28,16,4.623537540435791,32.13861083984375,-1.679417610168457,0.20123291015625,0.0,0.0
2.0714285714285716,29,3,8.072078704833984,32.50402069091797,-0.013220824647086706,0.017372768249223874,-0.16926555767785656,0.020394744796247737
2.0714285714285716,29,4,4.335423946380615,32.338077545166016,-0.30158282053496166,0.20146024968331805,-0.8455040635865658,1.4220725798381086
2.0714285714285716,29,6,-2.383345365524292,-1.598291277885437,1.0814521110934907,4.178647950723679,-2.9713798895021317,0.7775823359156517
2.0714285714285716,29,9,78.20816040039062,101.86844635009766,0.01099858924119721,0.01844968199628063,0.08467108955271772,0.12231616388980224
2.0714285714285716,29,11,-2.114992141723633,20.091686248779297,-0.5408796628196414,3.133287289043933,-7.2483467854345855,-9.100898103536446
2.0714285714285716,29,12,6.2108025550842285,12.120721817016602,1.7637233625849402,0.06120691647859479,2.4842689189555713,-0.6736915088765137
2.0714285714285716,29,13,11.433465957641602,13.493767738342285,4.185987830521647,3.004291372041822,1.8507861120128615,1.2761279744318157
2.0714285714285716,29,14,-0.18592289090156555,18.369115829467773,0.8089297711849213,5.840293884277344,0.0,0.0
2.0714285714285716,29,15,4.159610271453857,34.06683349609375,0.10070991516113281,0.0332183837890625,0.0,0.0
2.0714285714285716,29,5,-2.9027724266052246,29.68768310546875,-0.35232114791870117,3.4694252014160156,0.0,0.0
2.0714285714285716,29,16,4.559821128845215,32.16116714477539,-0.8920297622680664,0.31578826904296875,0.0,0.0
2.0714285714285716,29,17,3.478039264678955,-2.5821332931518555,-4.69105863571167,-6.90451967716217,0.0,0.0
2.142857142857143,30,3,8.049107551574707,32.504695892333984,-0.04990750572197111,0.001570340395145601,-0.13479145044275848,-0.07771648600681207
2.142857142857143,30,4,4.255465984344482,32.298526763916016,-0.5198207479116884,0.006146772994309768,-1.3643033589592222,0.4966936682029304
2.142857142857143,30,6,-2.1422572135925293,-1.042378544807434,1.7296775989802595,5.572175437523668,0.133502386154515,6.608043967149197
2.142857142857143,30,9,78.19627380371094,101.87963104248047,-0.05351588449130747,0.06167306511597019,-0.18744431577575274,0.2545376600707783
2.142857142857143,30,11,-2.2202584743499756,20.342723846435547,-1.4012694183518017,2.430877370412409,-10.10706610377561,-11.210900909400708
2.142857142857143,30,12,6.382180690765381,12.215210914611816,2.4338523361458146,0.8721752233874426,5.349578004677007,3.4751035005618705
2.142857142857143,30,13,11.742393493652344,13.748201370239258,4.2716368952648,3.285619865215813,1.6985171041398517,2.1907851457477223
2.142857142857143,30,14,-0.16391457617282867,18.788686752319336,0.6062033181129455,5.832094465325749,-1.1355944280201282,0.042667045133024516
2.142857142857143,30,15,4.456469535827637,34.15970993041992,4.15602970123291,1.3002700805664062,0.0,0.0
2.142857142857143,30,5,-2.810051679611206,30.016645431518555,1.2980904579162598,4.605472564697266,0.0,0.0
2.142857142857143,30,17,3.2168781757354736,-2.9784882068634033,-3.6562552452087402,-5.54896879196167,0.0,0.0
2.2142857142857144,31,3,8.0637845993042,32.44330596923828,0.0025728560381104056,-0.30011018516833815,0.1465656588340678,-1.237651126836498
2.2142857142857144,31,4,4.218499183654785,32.28498458862305,-0.7068682736201334,-0.15050860843363792,-1.8361047399049497,-0.19640273625889287
2.2142857142857144,31,6,-2.1002962589263916,-0.8145144581794739,1.7763146951467654,5.699024379695417,0.7101236276737279,6.58336361429093
2.2142857142857144,31,9,78.1928482055664,101.8851318359375,-0.08883773179770306,0.103758862934972,-0.3037352142411805,0.38454680445431205
2.2142857142857144,31,11,-2.15049147605896,20.685245513916016,-1.4015930082523513,2.5036872305501428,-9.046905891208459,-9.677775753629339
2.2142857142857144,31,12,6.53552770614624,12.254175186157227,2.4043962858581227,0.9679403175196417,3.80127114348229,3.2111008103737317
2.2142857142857144,31,13,12.02589225769043,13.938411712646484,4.438393760210999,3.086059835062153,2.334749458662325,0.637702667635105
2.2142857142857144,31,14,-0.16617485880851746,19.157960891723633,0.2492408933942412,5.7861007777054665,-2.3742273721325082,0.18902126924063786
2.2142857142857144,31,15,4.576178550720215,34.19617462158203,1.6759262084960938,0.5105056762695312,0.0,0.0
2.2142857142857144,31,5,-2.8664212226867676,30.260910034179688,-0.7891736030578613,3.4197044372558594,0.0,0.0
2.2142857142857144,31,17,2.9718878269195557,-3.303797721862793,-3.4298648834228516,-4.554333209991455,0.0,0.0
2.2857142857142856,32,3,8.048322677612305,32.48417282104492,-0.08989083381362185,-0.19495703184331017,-0.2993353742520145,-0.6759954580053879
2.2857142857142856,32,4,4.209245204925537,32.28756332397461,-0.6251347645335599,-0.29370550456443134,-1.1154002551159856,-1.0136831503172143
2.2857142857142856,32,6,-2.0387558937072754,-0.5807619094848633,1.431486725567456,4.940679193462028,-0.6575320051086959,2.4033814417230945
2.2857142857142856,32,9,78.19418334960938,101.89112854003906,-0.08373441068041441,0.12789470569724676,-0.25207382593328287,0.4143170126143988
2.2857142857142856,32,11,-2.081106424331665,20.99374771118164,-0.6592986541156339,3.1233716266767595,-4.44634934500152,-5.3048150670052205
2.2857142857142856,32,12,6.56538724899292,12.171453475952148,1.7656433801465854,0.2943418996106708,0.16703771310230184,-0.17842973063730436
2.2857142857142856,32,13,12.362605094909668,14.209099769592285,4.596546165384132,3.008161449744055,2.4942526800539677,-0.6301231240434533
2.2857142857142856,32,14,-0.16965742409229279,19.54960823059082,-0.2187193466713458,5.516102395026489,-4.086221573594346,-1.0287163520111668
2.2857142857142856,32,15,4.630801677703857,34.21220397949219,0.7647237777709961,0.2244110107421875,0.0,0.0
2.2857142857142856,32,5,-2.953099489212036,30.446138381958008,-1.2134957313537598,2.5931968688964844,0.0,0.0
2.2857142857142856,32,17,2.6525096893310547,-3.7621452808380127,-4.471293926239014,-6.416865825653076,0.0,0.0
2.2857142857142856,32,19,7.728860855102539,9.8370361328125,0.0,0.0,0.0,0.0
2.357142857142857,33,3,8.04293155670166,32.498199462890625,-0.13686589837489618,-0.026563201854570433,-0.46965227227747824,0.08954796999626088
2.357142857142857,33,4,4.229482173919678,32.2920036315918,-0.32708101738470285,-0.2364799829708586,0.27655562184580995,-0.7216541085060981
2.357142857142857,33,6,-2.0538461208343506,-0.46093523502349854,0.4734168891753292,3.196908711850166,-4.684107182072659,-5.69759750845689
2.357142857142857,33,9,78.19551849365234,101.89431762695312,-0.05274427422577734,0.12486646002391509,-0.09423676227545641,0.33104126605739786
2.357142857142857,33,11,-2.089053153991699,21.235090255737305,0.20306261126792113,3.839557972389069,0.9634892482622935,-0.14162383024408803
2.357142857142857,33,12,6.601113796234131,12.108657836914062,0.9217169910734195,-0.5698943265182992,-3.786076950871085,-4.008295881981788
2.357142857142857,33,13,12.634676933288574,14.39065170288086,4.441043929196982,3.180438970908102,1.3268314489110538,0.47667865407938226
2.357142857142857,33,14,-0.07777334004640579,19.989849090576172,0.02305551833757717,5.627932206537914,-2.470699250241096,-0.4116612775293758
2.357142857142857,33,15,4.63802433013916,34.21397018432617,2.294295147073813,0.7069895996687026,5.308568488178987,1.6306906288268372
2.357142857142857,33,5,-3.044933795928955,30.651159286499023,-1.2856802940368652,2.8702926635742188,0.0,0.0
2.357142857142857,33,17,2.3616247177124023,-4.155351161956787,-4.072389602661133,-5.504882335662842,0.0,0.0
2.357142857142857,33,19,7.871115207672119,9.743921279907227,1.991560935974121,-1.3036079406738281,0.0,0.0
2.357142857142857,33,2,16.556020736694336,15.567510604858398,-0.18373113504024766,-1.1494473368953748,-5.2209754016544085,1.9436264018906804
2.4285714285714284,34,3,8.039651870727539,32.501747131347656,-0.1397556062717151,0.09913022533747776,-0.41596565371243005,0.6177749748865478
2.4285714285714284,34,4,4.257111072540283,32.295501708984375,0.10352129662118545,-0.08945016044264939,2.044172550458422,0.025319432660641038
2.4285714285714284,34,6,-2.1337497234344482,-0.3889990448951721,-0.7424889975643325,1.261848312105425,-9.02833582397199,-13.303586402809529
2.4285714285714284,34,9,78.1953353881836,101.89445495605469,-0.021304739966240525,0.08626228084420601,0.05137521504911592,0.10584979011617604
2.4285714285714284,34,11,-2.030674457550049,21.57017707824707,1.2241544949962497,4.804915148548309,6.4977134954635485,5.396375452831239
2.4285714285714284,34,12,6.559011459350586,11.930899620056152,0.006720071864222099,-1.685639825401788,-6.864981402219159,-7.807189765918262
2.4285714285714284,34,13,12.921175003051758,14.6298189163208,4.307902778555425,3.4563565648579044,0.556404746675367,1.9234011176844672
2.4285714285714284,34,14,0.21344536542892456,20.571016311645508,1.6045272489558617,6.580527555529059,4.443818983647635,3.46598953143521
2.4285714285714284,34,15,4.609097480773926,34.20430374145508,1.1495044180071214,0.34219903611878777,-0.4275779985433562,-0.1929702145063166
2.4285714285714284,34,5,-3.053595781326294,30.86829376220703,-0.12126779556274414,3.0398826599121094,0.0,0.0
2.4285714285714284,34,17,2.0811586380004883,-4.530923843383789,-3.926525115966797,-5.258017539978027,0.0,0.0
2.4285714285714284,34,19,8.110976219177246,9.834805488586426,3.3580541610717773,1.272378921508789,0.0,0.0
2.4285714285714284,34,20,-5.785994052886963,2.1111762523651123,0.0,0.0,0.0,0.0
2.4285714285714284,34,2,16.582914352416992,15.550785064697266,0.015079022452804736,-0.8294547135573344,-3.188005919669689,2.620570758649211
2.5,35,3,8.041097640991211,32.50363540649414,-0.0937531048755652,0.16773982149518119,-0.15755481729552603,0.8534154263857093
2.5,35,4,4.25565242767334,32.289459228515625,0.34433922063209466,0.019681732039607706,2.7840779085383844,0.5789857579572841
2.5,35,6,-2.0273313522338867,-0.11705933511257172,-0.732759250574868,0.8465727978266396,-7.5011403598996695,-13.263913620725939
2.5,35,9,78.19559478759766,101.89503479003906,0.010249496684851029,0.03803871503818199,0.1876134205966547,-0.13331270289904965
2.5,35,11,-2.013456106185913,21.87868881225586,1.0910244781367404,4.6041900250547485,4.924288465846104,3.3818531774769887
2.5,35,12,6.607321262359619,11.854646682739258,-0.5532195013093432,-2.378501890691345,-8.321393368290947,-9.569268697946576
2.5,35,13,13.294227600097656,14.92973518371582,4.415221633714569,3.659046388659311,0.4478554819145719,2.091570612052427
2.5,35,14,0.2822681963443756,21.037782669067383,2.389699724629445,7.183616794292377,7.349896684933257,5.475878578385358
2.5,35,15,4.590200901031494,34.19753646850586,-0.16791618154017457,-0.07316119998098274,-6.486458958663548,-2.0956805129929905
2.5,35,5,-3.1965842247009277,31.061819076538086,-2.001838207244873,2.7093544006347656,0.0,0.0
2.5,35,17,1.756722331047058,-5.015756130218506,-4.5421082973480225,-6.787652015686035,0.0,0.0
2.5,35,19,8.099438667297363,9.644536018371582,-0.16152572631835938,-2.6637725830078125,0.0,0.0
2.5,35,20,-5.702953338623047,2.436998128890991,1.1625699996948242,4.561506271362305,0.0,0.0
2.5,35,2,16.620180130004883,15.487641334533691,0.3121808728361051,-0.6450417592374375,-0.8898697187100061,2.639893021639037
2.5714285714285716,36,3,8.042057037353516,32.506900787353516,-0.02981815710528702,0.1957990418772941,0.15470113317947048,0.8835942463523035
2.5714285714285716,36,4,4.250606060028076,32.28013610839844,0.44813380971392197,0.05070994162819339,2.90344256836901,0.7199244089261089
2.5714285714285716,36,6,-1.9829351902008057,0.05594213306903839,-0.4220537432917889,0.8927437446447093,-4.7515088815435265,-10.79212220679913
2.5714285714285716,36,9,78.19618225097656,101.89527130126953,0.03602858118737417,-0.009824956104721998,0.28358027178654144,-0.3430364042021478
2.5714285714285716,36,11,-2.0614795684814453,22.152538299560547,0.5083031597220675,4.408330092502896,1.6723326211481528,1.9647232955158984
2.5714285714285716,36,12,6.693018436431885,11.795854568481445,-0.355558812408477,-2.3418551113051262,-6.101882036275181,-7.683897030419445
2.5714285714285716,36,13,13.534092903137207,15.080474853515625,4.194812094563942,3.3170227373946526,-0.5700341541601333,0.2905118878969698
2.5714285714285716,36,14,0.47979968786239624,21.54062271118164,3.0793182146336737,7.492322035724471,9.035775695623544,5.659860219231642
2.5714285714285716,36,15,4.5887227058410645,34.19540786743164,-1.15563594084281,-0.38561236568685686,-10.412811066410292,-3.3255799103163466
2.5714285714285716,36,5,-3.2515110969543457,31.260433197021484,-0.7689762115478516,2.780597686767578,0.0,0.0
2.5714285714285716,36,17,1.5193747282028198,-5.426302909851074,-3.322866439819336,-5.747654914855957,0.0,0.0
2.5714285714285716,36,19,8.197975158691406,9.516182899475098,1.3795108795166016,-1.7969436645507812,0.0,0.0
2.5714285714285716,36,20,-5.5874152183532715,2.9393310546875,1.6175336837768555,7.032660961151123,0.0,0.0
2.5714285714285716,36,2,16.66644859313965,15.450957298278809,0.530403864929074,-0.5498893010430939,0.5289834455486527,2.0776630864782177
2.642857142857143,37,3,8.040182113647461,32.50837326049805,0.021146332216721964,0.18326008753365472,0.389044702682443,0.7313989281588756
2.642857142857143,37,4,4.24580717086792,32.270469665527344,0.45106378298059147,0.04138364355563114,2.599645065865709,0.6703914510006748
2.642857142857143,37,6,-1.967574954032898,0.16759304702281952,-0.36155139306631945,0.6363396651259811,-3.7551157677096136,-10.113569110339853
2.642857142857143,37,9,78.19645690917969,101.89554595947266,0.05171767475038375,-0.0439536269031756,0.32526162954542054,-0.46053114747608703
2.642857142857143,37,11,-2.053720474243164,22.527647018432617,0.4055637863087196,4.859958033995684,1.4059493125773819,3.727419897801792
2.642857142857143,37,12,6.74644136428833,11.710994720458984,-0.15995674465338275,-2.197462829409577,-4.358139537218672,-5.666803676438372
2.642857142857143,37,13,13.704532623291016,15.172731399536133,3.439758359836477,2.4462499012394114,-3.4955387829896623,-3.298369761985442
2.642857142857143,37,14,0.5836820006370544,21.9960880279541,3.1813955664817666,7.494245325358326,8.119980927378817,4.738891689785963
2.642857142857143,37,15,4.586636066436768,34.19375228881836,-1.6919430690892978,-0.5505660525194919,-11.74695097734844,-3.7121360897718336
2.642857142857143,37,5,-3.3352012634277344,31.435510635375977,-1.1716623306274414,2.4510841369628906,0.0,0.0
2.642857142857143,37,17,1.1767261028289795,-5.932998180389404,-4.797080755233765,-7.093733787536621,0.0,0.0
2.642857142857143,37,19,8.442665100097656,9.633644104003906,3.4256591796875,1.6444568634033203,0.0,0.0
2.642857142857143,37,20,-5.4959845542907715,3.3480138778686523,1.280029296875,5.721559524536133,0.0,0.0
2.642857142857143,37,2,16.80599021911621,15.196432113647461,1.2109205827893088,-1.4773823777015511,3.532621640185591,-2.201763047112136
2.7142857142857144,38,3,8.080514907836914,32.39208221435547,0.25463108603269785,-0.4292209357376569,1.2860775866539043,-1.7496072165978929
2.7142857142857144,38,4,4.249269485473633,32.27512741088867,0.3766597886770282,0.05584995339473357,1.8959795463738633,0.6466434338759111
2.7142857142857144,38,6,-1.8039319515228271,0.4674050211906433,0.7108011476374546,1.7654573068288701,1.6568298724021764,-3.200588830343625
2.7142857142857144,38,9,78.19779968261719,101.89688873291016,0.06134510663584931,-0.053259499692039095,0.3296523403441315,-0.44472309570921637
2.7142857142857144,38,11,-2.025824546813965,22.845598220825195,-0.057940042286592455,4.915558823712862,-1.4181388789771874,3.229487969085356
2.7142857142857144,38,12,6.76445198059082,11.572896957397461,0.1101024640711174,-2.0729083041559777,-2.103505883521358,-3.657595861731122
2.7142857142857144,38,13,13.977360725402832,15.372187614440918,3.05163172663047,1.9118781912880352,-4.630197240696226,-5.2873308355331385
2.7142857142857144,38,14,0.4806577265262604,22.348066329956055,1.9110157369933063,6.828779966163598,1.8991181646619495,1.4519939365073866
2.7142857142857144,38,15,4.546142578125,34.18144989013672,-1.8992331082524885,-0.6045979275582171,-11.029998079504196,-3.4298420940105308
2.7142857142857144,38,5,-3.3418564796447754,31.64008903503418,-1.4917344179048664,2.1950921949198547,-3.0963424083993254,-2.9556411256016344
2.7142857142857144,38,17,0.8760819435119629,-6.418924808502197,-5.548028379369106,-8.581333025308231,-10.285754604157457,-16.577582132749257
2.7142857142857144,38,19,8.64790153503418,9.70425033569336,2.873310089111328,0.9884872436523438,0.0,0.0
2.7142857142857144,38,20,-5.400453567504883,3.7989022731781006,1.3374338150024414,6.312437534332275,0.0,0.0
2.7142857142857144,38,2,16.88445472717285,15.016862869262695,1.7126148635265457,-2.321720573916962,5.453086343825436,-5.362415892925621
2.7857142857142856,39,3,8.053932189941406,32.463539123535156,0.20397081681985227,-0.3395392947085758,0.9523736110819077,-1.2804292493749216
2.7857142857142856,39,4,4.259450435638428,32.273033142089844,0.24767542698483283,0.020435951613764727,0.8838554301292887,0.33980275111391156
2.7857142857142856,39,6,-1.5755383968353271,0.8296305537223816,2.411264816435501,3.7397127166185755,9.102468073338082,6.612844113520826
2.7857142857142856,39,9,78.19889831542969,101.89807891845703,0.05576227225482911,-0.04680570669913742,0.25125985123948097,-0.35429734066667923
2.7857142857142856,39,11,-1.9462262392044067,23.164243698120117,0.20866926725394297,5.015806562041083,-0.37379630047090606,3.2762763165780706
2.7857142857142856,39,12,6.875545978546143,11.514227867126465,0.5622857442069212,-1.8577283686162664,0.13355565346808507,-2.101458887528876
2.7857142857142856,39,13,14.318558692932129,15.659321784973145,3.2168395582787372,2.1928201930015865,-3.556297305122765,-3.6568805124963513
2.7857142857142856,39,14,0.5717644095420837,22.810813903808594,0.9994703837314102,6.338225140291165,-2.446683621671735,-0.9884447123666625
2.7857142857142856,39,15,4.502747535705566,34.16748046875,-1.735237210844184,-0.5475334155014635,-8.310751558728734,-2.5567608081018904
2.7857142857142856,39,5,-3.4755160808563232,31.806537628173828,-1.4600107191754594,2.300538364478945,-2.249967959611635,-1.6502365334775386
2.7857142857142856,39,19,9.136690139770508,10.052372932434082,6.843040466308594,4.873716354370117,0.0,0.0
2.7857142857142856,39,20,-5.2890625,4.226853370666504,1.5594749450683594,5.9913153648376465,0.0,0.0
2.7857142857142856,39,21,-7.888021469116211,-5.347175121307373,0.0,0.0,0.0,0.0
2.857142857142857,40,3,8.045537948608398,32.49087905883789,0.08891192216940652,-0.10741817905229463,0.35263467350469896,-0.2870162706859593
2.857142857142857,40,4,4.252328395843506,32.26849365234375,0.028528079408022794,-0.03760357008565589,-0.41658044089130813,-0.03960190279625444
2.857142857142857,40,6,-1.3815464973449707,1.1709067821502686,3.503339525511353,5.06885830195035,12.341931835618567,11.433702679458634
2.857142857142857,40,9,78.19979858398438,101.89920806884766,0.03304078556156071,-0.03147926893188742,0.08568112702728317,-0.23107741381370092
2.857142857142857,40,11,-1.9549298286437988,23.516969680786133,0.20396637435093376,4.925992123821257,-0.4447335879847179,1.975380685114751
2.857142857142857,40,12,7.014156818389893,11.453054428100586,1.4112433219886866,-1.2827319414826746,3.903741309126085,1.0914710353164012
2.857142857142857,40,13,14.578071594238281,15.838839530944824,3.4055124236967016,2.3807301260387006,-2.185756985897935,-2.3079844388967006
2.857142857142857,40,14,0.6586098074913025,23.280248641967773,0.34741045283324273,6.021672443906471,-5.4472468376998435,-2.597108975195044
2.857142857142857,40,15,4.52956485748291,34.174442291259766,-1.0313156080421753,-0.32577951737181565,-3.5333627911294894,-1.0545490028989577
2.857142857142857,40,5,-3.585052013397217,31.945655822753906,-1.3403493738941472,2.1960620443804397,-0.7831154750662661,-1.420229893104842
2.857142857142857,40,19,9.244002342224121,9.964105606079102,1.502370834350586,-1.2357425689697266,0.0,0.0
2.857142857142857,40,20,-5.320847511291504,4.545610427856445,-0.4449901580810547,4.46259880065918,0.0,0.0
2.857142857142857,40,21,-7.584069728851318,-5.026191234588623,4.255324363708496,4.4937744140625,0.0,0.0
2.9285714285714284,41,3,8.043538093566895,32.50385665893555,-0.021240072552456572,0.09978843226777023,-0.20822275170375998,0.5348008675106519
2.9285714285714284,41,4,4.2364888191223145,32.260677337646484,-0.23013652555703829,-0.09170619171219019,-1.6875234767382545,-0.31041851973842316
2.9285714285714284,41,6,-1.1256316900253296,1.591842770576477,4.5456783495317765,6.496786792745865,14.830465743504497,15.893325447129588
2.9285714285714284,41,9,78.19896697998047,101.89798736572266,-0.0012634667953657051,-0.014223514939210527,-0.11236215153085588,-0.08908838240624842
2.9285714285714284,41,11,-2.1765525341033936,23.763490676879883,-0.8784244476610202,4.431195608311248,-4.44151747028935,-0.5726999212836286
2.9285714285714284,41,12,7.16995906829834,11.43499755859375,2.6007589898517973,-0.19440075542856788,9.116508426110148,6.550133612600484
2.9285714285714284,41,13,14.943581581115723,16.141206741333008,4.141855978618159,3.1498071288311986,1.392275601670503,1.366370038089911
2.9285714285714284,41,14,0.644166886806488,23.666969299316406,-0.4549802926732515,5.46430616752768,-8.487512047331832,-4.929749027096999
2.9285714285714284,41,15,4.701140880584717,34.224239349365234,0.6738356605374505,0.19211034549423478,4.886211082406701,1.515719395057875
2.9285714285714284,41,5,-3.7515556812286377,32.00486755371094,-1.6140359482494295,1.702903582779075,-1.1990360559201958,-2.655811432560577
2.9285714285714284,41,19,9.328566551208496,9.850492477416992,1.18389892578125,-1.5905838012695312,0.0,0.0
2.9285714285714284,41,20,-5.132197380065918,5.092501640319824,2.641101837158203,7.656476974487305,0.0,0.0
2.9285714285714284,41,21,-7.251936912536621,-4.589639663696289,4.649859428405762,6.111721992492676,0.0,0.0
2.9285714285714284,41,23,17.60402488708496,9.169878005981445,0.0,0.0,0.0,0.0
3.0,42,3,8.041436195373535,32.51304244995117,-0.10982549855796908,0.2453028728599385,-0.6339664459229801,1.0516950704155361
3.0,42,4,4.206902980804443,32.2613525390625,-0.5294673373716515,-0.11115125221724949,-2.92074169208803,-0.4221779836245652
3.0,42,6,-1.0749107599258423,1.8025448322296143,4.627142938478557,7.2337138227162,13.875472492042505,18.321266459296403
3.0,42,9,78.19790649414062,101.896240234375,-0.03187517818537795,0.0021845672285457224,-0.26057812291299626,0.049076511849325835
3.0,42,11,-2.3776984214782715,24.05341339111328,-2.3091577556098586,4.092785435544385,-9.446972562896377,-1.9357465213719
3.0,42,12,7.352499485015869,11.45129108428955,3.438289670323299,0.6807630139617601,11.613924273178752,9.791294620527148
3.0,42,13,15.158638954162598,16.263317108154297,4.136156520872307,3.095895524877637,1.414255254409099,1.2756871755186798
3.0,42,14,0.5761294364929199,24.076343536376953,-1.4885319337493608,5.01165935192868,-12.03665545249761,-6.515465244928083
3.0,42,15,4.6790571212768555,34.2165412902832,1.638055259166156,0.48589626300744515,9.480197944612362,2.9204001966105984
3.0,42,5,-3.829094409942627,32.080238342285156,-1.5322384236145405,1.1731570424276063,-0.20497617930128428,-3.941044770515094
3.0,42,19,9.625802993774414,10.019085884094238,4.161310195922852,2.3603076934814453,0.0,0.0
3.0,42,20,-4.993082523345947,5.529885768890381,1.9476079940795898,6.123377799987793,0.0,0.0
3.0,42,21,-7.218986511230469,-4.46500301361084,0.4613056182861328,1.744913101196289,0.0,0.0
3.0,42,23,17.341646194458008,8.84250259399414,-3.6733016967773438,-4.583255767822266,0.0,0.0
3.0,42,24,-2.614344596862793,3.0947377681732178,0.0,0.0,0.0,0.0
3.0714285714285716,43,3,8.039098739624023,32.51930618286133,-0.1548886980386336,0.33084790974755846,-0.7985448659875151,1.316940545436985
3.0714285714285716,43,4,4.178532600402832,32.26935958862305,-0.7140006727562528,-0.06660620531304767,-3.3549358764444874,-0.2547927135310508
3.0714285714285716,43,6,-0.7164888978004456,2.3207039833068848,4.799951723590575,7.626764341400969,11.734421437562254,16.716300776476512
3.0714285714285716,43,9,78.19690704345703,101.89466094970703,-0.044848145602753416,0.008541136905416045,-0.2899914871453093,0.11715886963419493
3.0714285714285716,43,12,7.54441499710083,11.456274032592773,3.833012403566023,1.1118508158406009,11.354712472841966,10.20587148278004
3.0714285714285716,43,13,15.530624389648438,16.56515884399414,4.640762298215422,3.587898721162681,3.4927683188245395,3.3522671574379532
3.0714285714285716,43,14,0.4594278633594513,24.433374404907227,-2.3878131983060387,4.600341391639297,-13.977774490066178,-7.34924302501508
3.0714285714285716,43,15,4.710953712463379,34.224708557128906,2.0310163260185643,0.6028221083061756,10.55756362111445,3.236589962060921
3.0714285714285716,43,5,-3.9875473976135254,32.152217864990234,-1.8831553208642255,0.6435985009793284,-1.5202637330080064,-5.30490400948215
3.0714285714285716,43,19,9.870847702026367,10.057787895202637,3.4306259155273438,0.5418281555175781,0.0,0.0
3.0714285714285716,43,20,-4.7956862449646,6.026949882507324,2.763547897338867,6.958897590637207,0.0,0.0
3.0714285714285716,43,21,-7.18876314163208,-4.27346658706665,0.4231271743774414,2.6815099716186523,0.0,0.0
3.0714285714285716,43,23,16.8721866607666,8.172196388244629,-6.5724334716796875,-9.384286880493164,0.0,0.0
3.0714285714285716,43,24,-2.5142433643341064,3.343775510787964,1.4014172554016113,3.4865283966064453,0.0,0.0
3.142857142857143,44,3,8.037582397460938,32.52001190185547,-0.1333844427969159,0.3580590603398426,-0.5864358315101544,1.3823337123405475
3.142857142857143,44,4,4.165798664093018,32.269775390625,-0.5684381569572655,0.06361425040814452,-1.9886841922623963,0.459046875429485
3.142857142857143,44,6,-0.5089759230613708,2.6629364490509033,4.160610338828757,6.709780457747844,5.815691796393165,8.647462698047125
3.142857142857143,44,9,78.1976089477539,101.89521026611328,-0.021400362797423824,-0.003839639836731766,-0.11864486011472707,0.040062806065844246
3.142857142857143,44,12,7.769049167633057,11.50833797454834,3.9195071646410735,1.2781654180184951,9.247770858925717,8.77695852838732
3.142857142857143,44,13,15.754903793334961,16.700733184814453,4.504082554765552,3.3321148254013835,2.6890922472547047,2.0284020777263
3.142857142857143,44,14,0.3774387836456299,24.81436538696289,-2.646477347777702,4.518473734583167,-12.396789724703055,-6.369136230138742
3.142857142857143,44,15,4.490283489227295,34.16389465332031,0.27101354036015823,0.09744681739836315,1.467099139653204,0.573856361431484
3.142857142857143,44,5,-4.107617378234863,32.21659469604492,-2.282094554533922,0.12311525945797319,-3.359249503484237,-6.771893392440634
3.142857142857143,44,19,10.26526165008545,10.374189376831055,5.521795272827148,4.429620742797852,0.0,0.0
3.142857142857143,44,20,-4.403768062591553,6.754489898681641,5.486854553222656,10.18556022644043,0.0,0.0
3.142857142857143,44,21,-7.030941009521484,-3.961735963821411,2.20950984954834,4.36422872543335,0.0,0.0
3.142857142857143,44,23,16.6237850189209,7.936727046966553,-3.4776229858398438,-3.2965707778930664,0.0,0.0
3.142857142857143,44,24,-2.409367084503174,3.626619338989258,1.4682679176330566,3.9598135948181152,0.0,0.0
3.2142857142857144,45,3,8.032408714294434,32.530818939208984,-0.1616974588172941,0.4324902660264927,-0.6833279965927664,1.7289908204378077
3.2142857142857144,45,4,4.172300815582275,32.27774429321289,-0.3181928348677043,0.14538912359989334,-0.46037673326874046,0.7802878083029019
3.2142857142857144,45,6,-0.3243066668510437,2.9749362468719482,3.463080734359141,5.785631229280331,0.9388003294464574,2.3994736750935832
3.2142857142857144,45,9,78.19743347167969,101.89424896240234,-0.01271158489784387,-0.011266912310292082,-0.05393973878437164,0.00029334235679690564
3.2142857142857144,45,12,7.919163227081299,11.43115520477295,3.4802202990411732,0.750382636766879,5.184741505430567,4.777629108630233
3.2142857142857144,45,13,15.93801498413086,16.762775421142578,3.8595283201677097,2.473639284403681,-0.09634904875836735,-1.4259688845825984
3.2142857142857144,45,14,0.23334328830242157,25.17684555053711,-2.645527953969374,4.710102590020993,-9.300641300631533,-3.8829321997918944
3.2142857142857144,45,15,4.403098106384277,34.13705062866211,-1.1170708001788638,-0.30913352055306464,-4.835252353088982,-1.2985909808632485
3.2142857142857144,45,5,-4.106452465057373,32.30341720581055,-1.6303835431594804,0.13035241942597642,-0.23702209987132467,-5.517837205083952
3.2142857142857144,45,19,10.57181167602539,10.488883972167969,4.29170036315918,1.6057243347167969,0.0,0.0
3.2142857142857144,45,20,-4.529394626617432,6.986490249633789,-1.7587718963623047,3.248004913330078,0.0,0.0
3.2142857142857144,45,21,-6.9371466636657715,-3.7278804779052734,1.3131208419799805,3.2739768028259277,0.0,0.0
3.2142857142857144,45,23,16.484071731567383,7.841707706451416,-1.9559860229492188,-1.330270767211914,0.0,0.0
3.2142857142857144,45,24,-2.383910894393921,3.8211803436279297,0.356386661529541,2.7238540649414062,0.0,0.0
3.2857142857142856,46,3,8.017962455749512,32.56105041503906,-0.15895632497227188,0.35705432121481795,-0.4858507848732662,0.937334982218487
3.2857142857142856,46,4,4.1621599197387695,32.284950256347656,-0.1489020539065093,0.17142939579545613,0.46173831504342533,0.7472306621198017
3.2857142857142856,46,6,-0.15452520549297333,3.2541022300720215,2.5864507862893777,4.538411346283068,-3.9764447176408466,-4.328971772899018
3.2857142857142856,46,9,78.1968765258789,101.8931884765625,-0.013599771979329572,-0.021101280174576187,-0.05087617056084847,-0.05114336047003855
3.2857142857142856,46,12,7.961368083953857,11.254924774169922,2.453469825825814,-0.44345676960890673,-0.29190983036281065,-1.0476745650540165
3.2857142857142856,46,13,16.05802345275879,16.744548797607422,2.6399055592514733,0.8772834209176118,-5.114572479953756,-7.74737227196748
3.2857142857142856,46,14,0.24114863574504852,25.554445266723633,-1.7539179451334084,5.009709450993583,-2.9484599416484767,-1.2564399598411446
3.2857142857142856,46,15,4.377735137939453,34.12821578979492,-1.8114115922759315,-0.5217756698413777,-7.532436212623131,-2.147128036598414
3.2857142857142856,46,19,10.926301002502441,10.762581825256348,4.83494275539629,2.9277516751507933,3.501466565781863,4.395716944791142
3.2857142857142856,46,20,-4.595181465148926,7.273067474365234,-0.921015739440918,4.012081146240234,0.0,0.0
3.2857142857142856,46,21,-6.903850555419922,-3.5273499488830566,0.46614551544189453,2.807427406311035,0.0,0.0
3.2857142857142856,46,23,16.20187759399414,7.512050151824951,-3.9507179260253906,-4.615205764770508,0.0,0.0
3.2857142857142856,46,24,-2.239335775375366,4.088491439819336,2.0240516662597656,3.7423553466796875,0.0,0.0
3.357142857142857,47,3,8.022115707397461,32.55352020263672,-0.09019762658186825,0.1648072483592593,-0.06881974797082702,-0.17483178930344562
3.357142857142857,47,4,4.161814212799072,32.28303909301758,-0.031709529655507336,0.1242175703974824,0.9139596810587979,0.39539205398711497
3.357142857142857,47,6,0.10195948928594589,3.6324586868286133,2.4155553515116592,4.068790366066228,-4.885498102209288,-6.513340102481458
3.357142857142857,47,9,78.19609069824219,101.89212799072266,-0.013967599384661173,-0.023209319474962496,-0.04250502550432665,-0.05350948542688995
3.357142857142857,47,12,8.037909507751465,11.090044021606445,1.3514309713783297,-1.8437223529543838,-5.356032461182646,-7.037692552837733
3.357142857142857,47,13,16.127464294433594,16.669322967529297,1.2451569568138856,-0.8757881074969405,-10.064401476031641,-13.691149015891726
3.357142857142857,47,14,0.24945904314517975,26.02387809753418,-0.7766998117374038,5.632803666645571,2.375926925982897,1.908092593715309
3.357142857142857,47,15,4.346859931945801,34.117759704589844,-1.9542004785007017,-0.5773615869861073,-7.399812585687786,-2.1784571747853656
3.357142857142857,47,19,11.301085472106934,11.062806129455566,5.2125751894883265,3.927672972087011,3.8480998423305,7.229834827003199
3.357142857142857,47,20,-4.4258341789245605,7.752216339111328,2.3708620071411133,6.7080841064453125,0.0,0.0
3.357142857142857,47,21,-6.845053672790527,-3.2850427627563477,0.8231563568115234,3.392300605773926,0.0,0.0
3.357142857142857,47,23,15.918353080749512,7.303023815155029,-3.9693431854248047,-2.9263687133789062,0.0,0.0
3.357142857142857,47,24,-2.063737630844116,4.473295211791992,2.4583740234375,5.3872528076171875,0.0,0.0
3.4285714285714284,48,3,8.046903610229492,32.50057601928711,0.10815687596711585,-0.289460828681161,0.8004470065709738,-2.1550132939420545
3.4285714285714284,48,4,4.171743869781494,32.293479919433594,0.11264048222824381,0.10994839416553961,1.3764439482615123,0.20612134976640076
3.4285714285714284,48,6,0.6295523643493652,4.2868571281433105,3.9831296779141696,5.384071569465255,1.5837403576486007,-1.0954517863799285
3.4285714285714284,48,9,78.19670104980469,101.89302825927734,-0.0040923266111960125,-0.008379084192875601,0.0126979515255106,0.024001258170114538
3.4285714285714284,48,12,8.089550018310547,10.906417846679688,0.41031151661342974,-2.9945405974387547,-8.789410614380046,-10.87332165642795
3.4285714285714284,48,13,16.198938369750977,16.558795928955078,-0.03875854452079597,-2.674675773691262,-14.073118787605576,-19.272536462848063
3.4285714285714284,48,14,0.23569071292877197,26.41445541381836,-0.20853624403918702,5.768699720794136,4.595596171589612,2.1653676011445557
3.4285714285714284,48,15,4.289700031280518,34.10043716430664,-1.8138540425411798,-0.5450253746348053,-5.767587757877777,-1.7403276902812375
3.4285714285714284,48,19,11.877970695495605,11.628704071044922,6.491378319209536,5.96091524831845,7.707483887133138,13.49267824958335
3.4285714285714284,48,20,-4.173802852630615,8.291077613830566,1.1443549011028258,5.5451600323655255,-3.1733155157051494,-4.176606381221143
3.4285714285714284,48,21,-6.708354949951172,-2.9779975414276123,1.9137821197509766,4.298633098602295,0.0,0.0
3.4285714285714284,48,23,15.586723327636719,7.074475288391113,-4.642816543579102,-3.199679374694824,0.0,0.0
3.4285714285714284,48,24,-2.0013396739959717,4.6653828620910645,0.8735713958740234,2.6892271041870117,0.0,0.0
3.5,49,3,8.066454887390137,32.44797134399414,0.3015435959039564,-0.7863982312341454,1.5194850114197338,-4.026128472606311
3.5,49,4,4.155390739440918,32.294960021972656,0.1660772691085419,0.08715487077896084,1.524269012424344,0.05232781918030724
3.5,49,6,0.785778820514679,4.557415962219238,4.10777820425226,5.310499895497029,1.5182671098178342,-1.8210697578403983
3.5,49,9,78.19697570800781,101.89334106445312,0.005523153259870417,0.006409280839900933,0.05913048883724716,0.09174701734813932
3.5,49,12,8.24830150604248,10.871932029724121,0.0759355133055344,-3.292999187146285,-9.587354823295232,-11.161310065026123
3.5,49,13,16.26675033569336,16.442218780517578,-0.9646616837916783,-3.9685802619142434,-16.119086645307387,-21.896237298554055
3.5,49,14,0.18528835475444794,26.794326782226562,0.33232901576555934,5.867677903722767,6.926346434112657,2.515481450199417
3.5,49,15,4.257869720458984,34.09122085571289,-1.3970026345993956,-0.42449967681764317,-3.028923921455681,-0.9435704875192499
3.5,49,19,12.19518756866455,11.852882385253906,7.199898391427653,7.075121021558418,10.118878121949036,16.811539831204602
3.5,49,20,-4.1066975593566895,8.715309143066406,1.089958103154204,5.725312367493705,-3.2979718316674203,-2.861649896584242
3.5,49,21,-6.617068767547607,-2.724478006362915,1.2780065536499023,3.5492734909057617,0.0,0.0
3.5,49,23,15.330122947692871,6.996585369110107,-3.592405319213867,-1.090458869934082,0.0,0.0
3.5,49,24,-1.8179963827133179,4.99931001663208,2.5668060779571533,4.674980163574219,0.0,0.0
3.5714285714285716,50,3,8.058598518371582,32.46344757080078,0.31184410201815593,-0.8318517808640681,1.3986392814708437,-3.782631507286532
3.5714285714285716,50,4,4.142640590667725,32.28611373901367,0.13582662343778185,0.008020617084145372,1.2778989584257672,-0.2821170505772131
3.5714285714285716,50,6,0.8062040209770203,4.751270294189453,3.142041408815993,4.634275282372124,-2.147955800995249,-3.842823381674797
3.5714285714285716,50,9,78.19705200195312,101.89311218261719,0.01165867379225912,0.01598911947094914,0.08333369006271088,0.12995700059583462
3.5714285714285716,50,12,8.292147636413574,10.682350158691406,-0.25448510687575543,-3.6069918361284805,-9.898328110822884,-11.042559954076063
3.5714285714285716,50,13,16.31880760192871,16.322458267211914,-1.072285524420734,-4.183141584429972,-13.570698848377306,-18.64076648326663
3.5714285714285716,50,14,0.08151860535144806,27.149208068847656,0.04913107977528494,5.6373209377938736,4.989305261648002,1.303813407863261
3.5714285714285716,50,15,4.25060510635376,34.089359283447266,-0.7258237145425358,-0.22370941650543816,0.5600130288309754,0.12913991123516919
3.5714285714285716,50,19,12.506430625915527,12.095457077026367,6.838156377647882,6.908246184865739,7.3816292294310495,13.992319632559314
3.5714285714285716,50,20,-4.112031936645508,9.025031089782715,0.48895009410666557,5.012431791395298,-5.46038498861703,-5.644660968646272
3.5714285714285716,50,21,-6.507689476013184,-2.4999306201934814,1.5313100814819336,3.1436634063720703,0.0,0.0
3.5714285714285716,50,23,15.059113502502441,6.84960412979126,-3.7941322326660156,-2.057737350463867,0.0,0.0
3.5714285714285716,50,24,-1.5878492593765259,5.421574115753174,3.222059726715088,5.9116973876953125,0.0,0.0
3.642857142857143,51,3,8.058168411254883,32.47944259643555,0.22882362172816104,-0.5247747761051884,0.8305746661533452,-1.8785061977683986
3.642857142857143,51,4,4.152093410491943,32.28919982910156,0.13992611603139135,-0.037737919414380705,1.088359371029952,-0.45813639982649834
3.642857142857143,51,6,0.9078755378723145,4.946409702301025,2.0968878697578996,3.7350086816659163,-5.587336808368156,-6.111143624530833
3.642857142857143,51,9,78.19713592529297,101.89311981201172,0.013925264683528745,0.01942398361505659,0.08508311137853018,0.131800613671274
3.642857142857143,51,12,8.336682319641113,10.50809383392334,-0.25924755633127067,-3.5462671312351404,-8.184266379036606,-8.788972998935854
3.642857142857143,51,13,16.36463737487793,16.201602935791016,-0.6536448030230926,-3.671420435500304,-8.56865569489162,-12.15936533753871
3.642857142857143,51,14,0.04780405014753342,27.532264709472656,0.021624363406630348,5.547222487067811,4.476565646197756,0.9394956064199955
3.642857142857143,51,15,4.254678249359131,34.09105682373047,0.09681849767758538,0.023696060973381887,4.52373185620466,1.3174077585870825
3.642857142857143,51,19,12.861320495605469,12.380664825439453,5.913355647408794,5.723944133583086,1.79917985965045,5.9134174882018
3.642857142857143,51,21,-6.340916156768799,-2.2887871265411377,2.3348264694213867,2.9560089111328125,0.0,0.0
3.642857142857143,51,23,14.785285949707031,6.661082744598389,-3.833585739135742,-2.6392993927001953,0.0,0.0
3.642857142857143,51,24,-1.433963656425476,5.706343650817871,2.1543984413146973,3.9867734909057617,0.0,0.0
3.7142857142857144,52,3,8.012412071228027,32.575016021728516,-0.16141829051941878,0.43402763073905354,-1.0198303844054135,2.7731042730565836
3.7142857142857144,52,4,4.131993770599365,32.29109191894531,-0.021013347191969546,-0.08018998730526138,0.15704584313493686,-0.6390210435036845
3.7142857142857144,52,6,0.9785399436950684,5.164734363555908,0.7591396009208331,2.6239693706057006,-10.370701489199343,-9.64541016519817
3.7142857142857144,52,9,78.1965103149414,101.89225769042969,0.006816659757610276,0.010852387308310455,0.04002048958517998,0.07381986576889395
3.7142857142857144,52,12,8.424051284790039,10.377878189086914,0.2297580582983148,-2.914038339771161,-4.214573676529858,-3.9564318994949375
3.7142857142857144,52,13,16.417333602905273,16.001192092895508,-0.15021523898702638,-3.363206859967124,-4.030913702023515,-7.376392286347861
3.7142857142857144,52,14,0.060654863715171814,27.922887802124023,0.412474096687937,5.618463676379739,5.9271796998357855,1.42325915973828
3.7142857142857144,52,15,4.238753795623779,34.086734771728516,0.7886059304587738,0.23266595425239953,7.633922036776482,2.2532275906161465
3.7142857142857144,52,19,13.257685661315918,12.70752239227295,5.0833938189321985,4.500066866002835,-3.1056561079258582,-1.8596583573046945
3.7142857142857144,52,21,-6.409918785095215,-2.2481162548065186,-0.9660367965698242,0.569392204284668,0.0,0.0
3.7142857142857144,52,23,14.507783889770508,6.463312149047852,-3.885028839111328,-2.7687883377075195,0.0,0.0
3.7142857142857144,52,24,-1.3316529989242554,5.910380840301514,1.4323492050170898,2.856520652770996,0.0,0.0
3.7857142857142856,53,3,7.988860607147217,32.623783111572266,-0.3862337501320408,0.9104655131394482,-1.7574320266209618,4.263259855090791
3.7857142857142856,53,4,4.128871440887451,32.29478454589844,-0.16186911703773735,-0.06774443135277051,-0.6528623891631479,-0.5217342309585442
3.7857142857142856,53,6,1.0280991792678833,5.451184272766113,-0.4655768467590643,2.0909522103892777,-14.236411635212793,-10.628879814066396
3.7857142857142856,53,9,78.19615936279297,101.8917465209961,-0.0018289264614938933,-0.0008386768891357446,-0.008986130260739782,0.0042358636238815145
3.7857142857142856,53,12,8.57570743560791,10.296934127807617,1.0767297905974147,-1.9602810332418812,0.5493475135814754,1.4961977800930393
3.7857142857142856,53,13,16.479534149169922,15.856359481811523,0.4350875211517189,-2.8476051441563968,0.11101384400244556,-2.579309628919244
3.7857142857142856,53,14,-0.011972191743552685,28.248193740844727,-0.10821735519012177,5.114644907178982,2.4151324461640113,-1.023273606105717
3.7857142857142856,53,15,4.241034507751465,34.087013244628906,1.182496232204913,0.35189996277928015,8.787080539657381,2.6089625504821843
3.7857142857142856,53,19,13.473809242248535,12.800636291503906,3.292332617665633,2.064770396518506,-11.798029884733197,-13.990380985284856
3.7857142857142856,53,21,-6.26111364364624,-2.0137710571289062,1.9861495477062052,2.276336983597951,5.059408609084337,-3.115870314785563
3.7857142857142856,53,23,14.339377403259277,6.163086891174316,-2.3576908111572266,-4.203153610229492,0.0,0.0
3.7857142857142856,53,24,-1.2051331996917725,6.130560398101807,1.7712771892547607,3.0825138092041016,0.0,0.0
3.857142857142857,54,3,7.954796314239502,32.69380569458008,-0.6258073111005434,1.3923942039455874,-2.5178067304189384,5.6968969975125505
3.857142857142857,54,4,4.135863780975342,32.301090240478516,-0.17032552250906813,-0.007903614814583905,-0.7571832497194129,-0.18129376564392086
3.857142857142857,54,6,1.267209768295288,5.87229585647583,-0.2470734598845818,2.7876707889016146,-11.60312451342052,-6.431408274227657
3.857142857142857,54,9,78.19486236572266,101.8900146484375,-0.013397778740857513,-0.01720847751057167,-0.0619310289847736,-0.07499680631744542
3.857142857142857,54,12,8.69144058227539,10.239354133605957,1.8436975947812149,-0.830063423639739,4.38607738100742,6.951741342750656
3.857142857142857,54,13,16.555322647094727,15.715097427368164,1.1862840111059325,-2.055878543765837,4.480026313682031,2.8715221909438036
3.857142857142857,54,14,-0.1432264894247055,28.505657196044922,-1.1053406479451635,4.200880329313539,-2.74783960086151,-4.838147177296211
3.857142857142857,54,15,4.2336344718933105,34.08481216430664,0.9651437196696452,0.29032979188127855,6.425977270827374,1.9256681305127974
3.857142857142857,54,19,13.838850021362305,13.136832237243652,3.118701157986219,1.7873205143701727,-11.029998561136024,-13.826500488442198
3.857142857142857,54,21,-6.18547248840332,-1.8883554935455322,1.4044694924286545,1.5208657372931003,1.286088989750673,-6.137090958561167
3.857142857142857,54,23,13.960725784301758,6.064948081970215,-5.301122665405273,-1.3739433288574219,0.0,0.0
3.857142857142857,54,24,-1.2196849584579468,6.285698413848877,-0.20372462272644043,2.1719322204589844,0.0,0.0
3.9285714285714284,55,3,7.9964985847473145,32.61360168457031,-0.43561544657271223,0.995706884269984,-1.5066647740569403,3.497527305177258
3.9285714285714284,55,4,4.16968297958374,32.29304885864258,0.041924026157476216,0.001059276445903503,0.12257320596808265,-0.04313109998641854
3.9285714285714284,55,6,1.322279453277588,6.110287666320801,-0.10186605505678054,3.1459047283851778,-9.105677383352996,-3.8337528259685896
3.9285714285714284,55,9,78.19454956054688,101.88986206054688,-0.0162127114270109,-0.02065143166478432,-0.06545752769374173,-0.08268022800862168
3.9285714285714284,55,12,8.750856399536133,10.063271522521973,2.096810482366176,-0.5578965932975066,5.507634455861466,7.922571128549828
3.9285714285714284,55,14,-0.22609379887580872,28.819507598876953,-1.7311563427038834,3.681895686370549,-5.4358942249594016,-6.326038518822272
3.9285714285714284,55,15,4.229333400726318,34.08374786376953,0.27614741497587114,0.0900071147140731,1.5638803498357228,0.5049851745024544
3.9285714285714284,55,19,14.267574310302734,13.542732238769531,3.8431637843729245,2.7001110810180604,-6.2700125251721515,-8.288475626853769
3.9285714285714284,55,21,-6.02484655380249,-1.5849745273590088,1.2344016232881851,1.6645789842759937,-0.5667269808852298,-5.455190113646817
3.9285714285714284,55,23,13.660059928894043,5.9227294921875,-4.296186891456386,-3.554972913809841,-2.5833963511156286,-7.732941173919733
3.9285714285714284,55,24,-1.102715015411377,6.550443172454834,1.6375792026519775,3.7064266204833984,0.0,0.0
4.0,56,3,8.094804763793945,32.36631774902344,0.2490796051733195,-0.6573219574216213,1.3831050332434425,-3.4755641923834153
4.0,56,4,4.155496597290039,32.258480072021484,0.12485422607798653,-0.1651308992429926,0.5357389941533945,-0.6334460485273938
4.0,56,6,1.4478191137313843,6.424043655395508,0.7292756130193155,3.9999369062609675,-3.2572989307939637,1.1720751546147767
4.0,56,9,78.19485473632812,101.89045715332031,-0.011775014067613197,-0.013905710124100495,-0.03694626168952393,-0.04427439678301606
4.0,56,12,8.762429237365723,9.85552978515625,1.6753371485677881,-1.086044392994143,3.3733380177682157,4.968148239657296
4.0,56,14,-0.44274282455444336,29.17173194885254,-2.6160073477238948,3.618294731464309,-8.308100682449641,-5.752046823860858
4.0,56,15,4.2342753410339355,34.08548355102539,-0.06297223772139157,-0.007709404242328091,-0.7819615513191158,-0.17870845957689124
4.0,56,19,14.591914176940918,13.852151870727539,4.163245453394194,3.326330201877945,-3.9209820496610988,-4.758046878528872
4.0,56,21,-5.835694313049316,-1.3055537939071655,1.9770021553672512,2.8229231973708906,2.590536926666465,0.6018943116555607
4.0,56,23,13.328341484069824,5.692737579345703,-4.5743223743780606,-3.576943614144443,-3.1559794422606426,-6.976000819390748
4.0,56,24,-1.0373789072036743,6.7732157707214355,0.03457704797269763,1.8979871210609407,-8.207069421365917,-8.32806382663521
4.071428571428571,57,3,8.053848266601562,32.48252487182617,0.40882758936810215,-0.9365187127606788,1.992490817818489,-4.505033685790747
4.071428571428571,57,4,4.188691139221191,32.25385284423828,0.3297018463615214,-0.24647850860040918,1.371352832241857,-0.8594705899076228
4.071428571428571,57,6,1.568434476852417,6.6595540046691895,1.1926374811484333,3.9773306103134054,-0.40643856639599607,1.1561625241154612
4.071428571428571,57,9,78.19799041748047,101.89440155029297,0.008723887243533596,0.012155154691350867,0.05036456001274752,0.06487675010373103
4.071428571428571,57,12,8.806343078613281,9.715693473815918,1.041467336308166,-1.6965084781154227,0.1573549434131317,1.4513928632511912
4.071428571428571,57,14,-0.5382413268089294,29.50406265258789,-2.7724282572683774,3.890741750145975,-7.530337960886793,-3.496360903471652
4.071428571428571,57,15,4.237802028656006,34.08735275268555,-0.31284983203661876,-0.08113044107788356,-2.378065844286955,-0.6597950390200443
4.071428571428571,57,19,15.386326789855957,14.74769115447998,6.8131038908864445,7.043884312145617,7.579660337974396,11.195583380425527
4.071428571428571,57,21,-5.598965167999268,-0.9104584455490112,2.9225316024294528,4.415525870740143,6.068567992335666,7.391952895530821
4.071428571428571,57,23,13.061826705932617,5.570077419281006,-4.189142630410723,-2.518625954217556,-0.3490926719538492,-0.5027549486174175
4.071428571428571,57,24,-0.9324020743370056,7.043270587921143,-0.008440182731750845,2.1898583777989056,-7.4209690443411445,-5.971954228951218
4.142857142857143,58,3,8.03851318359375,32.52311706542969,0.38613375805125,-0.80174336450207,1.8182399185415568,-3.7692833694760535
4.142857142857143,58,4,4.2284111976623535,32.263118743896484,0.5476869147128166,-0.18008801220687753,2.060383093782711,-0.45749436268676263
4.142857142857143,58,6,1.7798579931259155,6.999043941497803,2.4545659528115373,4.649996763790433,5.97979714637156,4.607743956684246
4.142857142857143,58,9,78.19983673095703,101.89691162109375,0.025486435785676987,0.03435685515964822,0.10828825047855814,0.14178746426378572
4.142857142857143,58,12,8.87234115600586,9.55725383758545,0.47290870095289145,-2.412726674184594,-2.7613240383928335,-2.4803559886803734
4.142857142857143,58,14,-0.5315958857536316,29.862262725830078,-2.0180959554481412,4.391528760485697,-3.084572842405063,-0.5106298399672383
4.142857142857143,58,15,4.26566743850708,34.09638214111328,0.09941704706346033,0.032244037418972187,-0.05925716473989375,-0.038956925520460345
4.142857142857143,58,19,15.915918350219727,15.25806713104248,8.671304438968026,9.361324120910384,14.379216629515469,19.335256790862985
4.142857142857143,58,21,-5.293491840362549,-0.46807757019996643,3.918188205511709,6.056573368391693,8.798483352795335,13.108670383466968
4.142857142857143,58,23,12.89908218383789,5.548180103302002,-3.6706578405095023,-1.6892438808317698,1.5365131324472296,2.652474013808606
4.142857142857143,58,24,-0.8211655020713806,7.323492050170898,0.3775896779557257,2.8498165268024573,-4.6103066417846446,-2.137410941826368
4.142857142857143,58,20,-3.172947406768799,12.856030464172363,0.0,0.0,0.0,0.0
4.214285714285714,59,3,7.971888065338135,32.656646728515625,0.01685923914304979,-0.015918067297893874,0.2991744773121259,-0.5476729314847816
4.214285714285714,59,4,4.259509563446045,32.28057098388672,0.6619350142628405,-0.023152602943475424,2.155813435563632,0.2292395064798052
4.214285714285714,59,6,1.9147428274154663,7.254183292388916,3.374927838089317,4.987290275512442,10.267527005101849,6.374943101508007
4.214285714285714,59,9,78.2002944946289,101.8974380493164,0.033612744980255564,0.04529497502366398,0.1302191694511638,0.1734453204168738
4.214285714285714,59,12,8.833000183105469,9.314173698425293,-0.24181156734215173,-3.1375617056370744,-5.497787733303322,-5.375482610028307
4.214285714285714,59,14,-0.5733970403671265,30.177631378173828,-1.0403678978229323,4.776324401134288,2.028403622970584,1.791599322588009
4.214285714285714,59,15,4.268311023712158,34.098873138427734,0.16724856782443714,0.06080189809254608,0.18927956658315903,0.06851324212791524
4.214285714285714,59,19,16.28758430480957,15.611601829528809,9.196986086308213,10.188466052464015,15.402294350725253,21.316398827258865
4.214285714285714,59,21,-5.1380934715271,-0.2734397351741791,4.246083499659275,6.40234561458679,8.89103888913929,13.304361958654171
4.214285714285714,59,23,12.648923873901367,5.319924354553223,-3.4974807482260464,-1.7892738575509666,1.4839729219897677,1.6496302763860513
4.214285714285714,59,24,-0.6757124066352844,7.599370002746582,1.25270918610509,3.771992245890363,0.3101491253539981,2.821566481036449
4.214285714285714,59,20,-3.284470796585083,13.157675743103027,-1.5613274574279785,4.223033905029297,0.0,0.0
4.285714285714286,60,3,8.028646469116211,32.557125091552734,0.10568901198740721,-0.10461534621908047,0.6433996849770005,-0.9025508886367453
4.285714285714286,60,4,4.247869968414307,32.292057037353516,0.511870899571246,0.13819731934013949,1.2159368515974431,0.8706580498158601
4.285714285714286,60,6,1.9196406602859497,7.321409702301025,3.091079203070765,3.9959187532802023,8.73789905861599,2.316729165849735
4.285714285714286,60,9,78.19802856445312,101.89643096923828,0.02128198443721019,0.03793724166212619,0.06993920818691891,0.1277988063697293
4.285714285714286,60,12,8.86307430267334,9.13074779510498,-0.42649970173296137,-3.3636321028573257,-5.320995650140326,-5.451975579834739
4.285714285714286,60,14,-0.755281925201416,30.433107376098633,-1.1188781898345763,4.637467402398516,1.8010076150080732,1.5351867953877343
4.285714285714286,60,15,4.198554992675781,34.077186584472656,-0.2616141057801558,-0.0681194032438976,-1.6899528817473077,-0.49298143075138096
4.285714285714286,60,19,16.487289428710938,15.743012428283691,7.713496420797836,8.245448915727067,7.736599052414051,10.916654514871
4.285714285714286,60,21,-5.036190509796143,-0.10853196680545807,3.8386697176215434,5.65363788183137,6.170031157973556,8.839541096043607
4.285714285714286,60,23,12.53388786315918,5.276167392730713,-2.5211365065103526,-0.9775882258733982,5.163722360955407,5.251723443401035
4.285714285714286,60,24,-0.48340126872062683,7.972559928894043,2.2044489683581183,4.884688758862088,4.5811090257791935,7.554907618245055
4.285714285714286,60,20,-3.280548572540283,13.50190258026123,0.054911136627197266,4.819175720214844,0.0,0.0
4.357142857142857,61,3,8.051240921020508,32.52115249633789,0.17530415906008343,-0.16432586482597442,0.6882467034956469,-0.7079445084708712
4.357142857142857,61,4,4.246688365936279,32.29254150390625,0.2434775888450318,0.2246015416690041,-0.18896791885819303,1.1632632509196095
4.357142857142857,61,6,1.9706194400787354,7.437732219696045,1.9782946361230516,2.275643997262711,2.6732694870446925,-5.44952462221752
4.357142857142857,61,9,78.19636535644531,101.89527130126953,0.001304853415954132,0.018454929362291723,-0.018159865373896637,0.0321667547974447
4.357142857142857,61,12,8.874480247497559,8.916967391967773,-0.4971227000581363,-3.4977323451153683,-4.687592757173675,-5.017105088634446
4.357142857142857,61,14,-0.7487881183624268,30.756059646606445,-0.6776702112130185,4.442295325787416,3.462300333671552,0.5648382185935196
4.357142857142857,61,15,4.1802778244018555,34.06991195678711,-0.5203684181429505,-0.15645169916097926,-2.568519015237877,-0.7948418852663025
4.357142857142857,61,19,16.6525821685791,15.645137786865234,5.026408147787997,3.851987373695012,-4.666666032321746,-9.010045454812527
4.357142857142857,61,21,-4.5878424644470215,0.460836797952652,4.547958931392297,6.106009172586895,7.590940252748021,8.645567429738497
4.357142857142857,61,23,12.3427734375,5.148031234741211,-1.8087870422991492,-0.7378087758578477,7.480369746715006,5.672656378355241
4.357142857142857,61,24,-0.3597797453403473,8.246759414672852,2.790950848854423,5.316690426686291,6.885100308181996,8.61107706244465
4.357142857142857,61,20,-3.307587146759033,13.903148651123047,-0.3785400390625,5.61744499206543,0.0,0.0
4.428571428571429,62,3,8.054197311401367,32.51774215698242,0.09614767621908214,0.030846808970400694,-0.00470198765040682,0.7991398676610254
4.428571428571429,62,4,4.234521865844727,32.28243637084961,-0.09296545419778171,0.17114633912122118,-1.730564243053873,0.8085986751599209
4.428571428571429,62,6,2.0735270977020264,7.627819538116455,0.5981522019417532,0.6549880515396349,-5.1101905830605,-13.043018289281203
4.428571428571429,62,9,78.19819641113281,101.89897155761719,-0.00559068816943858,0.01493944577534592,-0.05536252305067476,-0.004777117193200948
4.428571428571429,62,12,8.933202743530273,8.751577377319336,-0.17494381946475354,-3.284495269351209,-2.4555240212042624,-3.1910054258150575
4.428571428571429,62,14,-0.9905819892883301,30.97062873840332,-1.2093954211709192,3.9372373547049975,1.2057091114300802,-1.299714448524943
4.428571428571429,62,15,4.169579982757568,34.067562103271484,-0.5551437412411959,-0.1703931771071723,-2.2796525665118486,-0.7197693872230132
4.428571428571429,62,19,16.762208938598633,15.508142471313477,1.6656629894973614,-1.551706539679602,-19.212659884242058,-31.804339368598708
4.428571428571429,62,21,-4.17456579208374,0.986149787902832,5.353358198914379,6.699290788906499,8.715476306495354,8.350186454929124
4.428571428571429,62,23,12.368802070617676,5.336353302001953,-0.3313935933769409,0.6831398150699876,12.483545523902952,10.269483860201941
4.428571428571429,62,24,-0.21514245867729187,8.512693405151367,3.257506613358198,5.518903449909443,8.539879391530812,8.909801858342918
4.428571428571429,62,20,-3.1942176818847656,14.397215843200684,1.587172508239746,6.916940689086914,0.0,0.0
4.5,63,3,8.041563987731934,32.51873016357422,-0.08161692719612491,0.2608379923720084,-0.9716620608272515,2.2219958796822694
4.5,63,4,4.250149250030518,32.265098571777344,-0.20746077491506376,0.04065951227006596,-2.0896873021017393,0.2078586883317982
4.5,63,6,2.3059136867523193,7.93885612487793,0.943215583212131,1.0666591796679903,-3.654095794250779,-9.883720777453094
4.5,63,9,78.19915008544922,101.9007568359375,-0.006674656741238298,0.01369842476860788,-0.06462548257408189,-0.027175504397839056
4.5,63,12,9.022737503051758,8.668583869934082,0.3494244515246435,-2.663354387070803,0.10430708789777463,-0.317973830701199
4.5,63,14,-1.4245259761810303,31.139759063720703,-3.0538989316902097,3.072222322080644,-5.824494184318372,-4.414156217081602
4.5,63,15,4.187875270843506,34.07437515258789,-0.38376596668407226,-0.11566955815092313,-1.26161632806347,-0.4004349648622151
4.5,63,19,16.923015594482422,15.265332221984863,-0.44350312486128146,-5.996271543732985,-25.919471468860483,-46.414595297558755
4.5,63,21,-3.9103152751922607,1.3882695436477661,5.394953208541451,6.734478108164099,6.770723673013529,5.952899008195211
4.5,63,23,12.190848350524902,5.161138534545898,0.010682275112631145,0.36603371004612656,11.979133581983309,6.811111003325318
4.5,63,24,-0.0998355969786644,8.74515151977539,2.9670266490311152,4.777162474924253,6.054155148314816,4.272167084983029
4.5,63,20,-3.074416399002075,14.84115982055664,1.677217960357666,6.215215682983398,0.0,0.0
4.571428571428571,64,3,8.058252334594727,32.51153564453125,-0.07768651548893572,0.25651636726197774,-0.9546432015642491,2.1123585899971897
4.571428571428571,64,4,4.229201793670654,32.28579330444336,-0.37888811188803584,0.06902812540937528,-2.5658794257315054,0.2820424462995175
4.571428571428571,64,6,2.553370237350464,8.266533851623535,2.0868279033341914,2.458001290471282,1.515187239215379,-2.363377192321256
4.571428571428571,64,9,78.20057678222656,101.90284729003906,-0.0015267883092328145,0.01587530378748296,-0.045506998544460615,-0.02988676643482041
4.571428571428571,64,12,8.994423866271973,8.422187805175781,0.6450209480964362,-2.286198547263245,2.072814298431159,2.0811095537403537
4.571428571428571,64,14,-1.5897228717803955,31.349246978759766,-3.9577846195099564,2.388378279321449,-8.477433641992251,-6.502996261542796
4.571428571428571,64,15,4.2329230308532715,34.0884895324707,-0.005532409131111301,0.0012483659132741533,0.4014278851064171,0.11201395348348772
4.571428571428571,64,19,16.971935272216797,15.09637451171875,-2.0886385884339536,-8.751865524571997,-29.347875718796892,-51.74057210228906
4.571428571428571,64,21,-3.981867790222168,1.4491931200027466,3.264106151385227,4.798961735645643,-3.5096235868616827,-3.6214560907710625
4.571428571428571,64,23,12.262493133544922,5.367067813873291,0.8563568696756618,1.2505315034577758,13.124722365220766,8.474315475734322
4.571428571428571,64,24,0.02825026959180832,8.970931053161621,2.3625771915098532,3.6053497090458713,2.0586226133657375,-2.182520716558354
4.571428571428571,64,20,-3.0608272552490234,15.203192710876465,0.1902480125427246,5.068460464477539,0.0,0.0
4.571428571428571,64,25,-6.471051216125488,0.5423055291175842,0.0,0.0,0.0,0.0
4.642857142857143,65,3,8.065444946289062,32.50484848022461,-0.013640365369663461,0.09315991565479555,-0.56926038817826,1.0386114643107012
4.642857142857143,65,4,4.20050573348999,32.32196807861328,-0.5720512998229985,0.20915292666680654,-3.018165137433349,0.6971329429633576
4.642857142857143,65,6,2.7050251960754395,8.456390380859375,2.761415036835021,3.453867183691379,4.204757881620028,3.164268276929988
4.642857142857143,65,9,78.20110321044922,101.90367889404297,0.0028905681535510304,0.013833016711561202,-0.026176797857499833,-0.04395133086029954
4.642857142857143,65,12,8.997040748596191,8.240089416503906,0.7500123451038656,-2.0190879527460264,2.9234572367910903,3.597590527982764
4.642857142857143,65,14,-1.6696590185165405,31.62054443359375,-3.9615162604182736,2.1895122387430024,-7.74387185200166,-6.592572001730047
4.642857142857143,65,15,4.233340740203857,34.089263916015625,0.22396304692498897,0.0733721112816799,1.3285706284179637,0.4020599875410286
4.642857142857143,65,19,17.00679588317871,15.022709846496582,-2.991236037338563,-9.105103095252659,-28.677280928514413,-45.56643680785393
4.642857142857143,65,21,-3.9705748558044434,1.566918134689331,0.8276500925159648,2.5654411969463906,-13.698484627189998,-12.813706811084801
4.642857142857143,65,23,12.02099609375,5.1415510177612305,0.12061715885200819,0.47281952333423066,7.652165664147327,3.717756606514718
4.642857142857143,65,24,0.21471717953681946,9.240939140319824,2.1222996438177795,2.9817034674985394,0.04708006630790277,-5.211749422064664
4.642857142857143,65,20,-2.904093027114868,15.70461368560791,2.194279193878174,7.019893646240234,0.0,0.0
4.642857142857143,65,25,-6.205674171447754,1.083978295326233,3.7152786254882812,7.5834187269210815,0.0,0.0
4.714285714285714,66,3,8.065939903259277,32.500205993652344,0.13677923050442875,-0.2782076357275281,0.39893993413179535,-1.2616745769941222
4.714285714285714,66,4,4.220044136047363,32.33738327026367,-0.4059601469576894,0.28547662655387146,-1.7921696838390113,0.7966756576146331
4.714285714285714,66,6,3.0026419162750244,8.826425552368164,3.894484995611954,4.8536061123225895,8.520892054966296,9.440975321064393
4.714285714285714,66,9,78.20138549804688,101.90302276611328,0.007437325131254246,0.005955744213294949,-0.00032964431167177696,-0.06864989804713686
4.714285714285714,66,12,9.075201034545898,8.134577751159668,0.937432302109297,-1.6378434715667514,3.471883615097749,4.873351129711161
4.714285714285714,66,14,-1.7769122123718262,31.8627872467041,-3.511246384045864,2.274510572758675,-5.305554619203665,-5.357553162725223
4.714285714285714,66,15,4.291891574859619,34.10531997680664,0.6520035587924299,0.19495359529142514,2.9917490624974254,0.8751518399110921
4.714285714285714,66,19,17.039295196533203,14.942893028259277,-2.887580613624928,-7.417003408516363,-22.96571690716191,-30.101122503726458
4.714285714285714,66,21,-3.6099464893341064,2.0522961616516113,0.8275624409041042,2.6684252810865208,-12.079243675795677,-10.8806011499532
4.714285714285714,66,23,11.447559356689453,4.379573822021484,-3.069678617998083,-3.654306226086752,-7.086203152237805,-13.31038944082319
4.714285714285714,66,24,0.4370918273925781,9.577564239501953,2.288674756474715,3.128935864188669,0.03389177792423097,-4.369383161783556
4.714285714285714,66,20,-2.9460742473602295,16.058574676513672,-0.5877370834350586,4.955453872680664,0.0,0.0
4.714285714285714,66,25,-6.086885929107666,1.4593976736068726,1.6630353927612305,5.255871295928955,0.0,0.0
4.785714285714286,67,3,8.066988945007324,32.49799346923828,0.22109980874469506,-0.506630758953994,0.9390321338877524,-2.593755857257821
4.785714285714286,67,4,4.231448173522949,32.344383239746094,-0.15528244877932912,0.264075937074451,-0.3508702427254057,0.4836762487258223
4.785714285714286,67,6,3.2678585052490234,9.147419929504395,4.763292720105285,5.740675475322867,11.104004506731595,12.300130757091564
4.785714285714286,67,9,78.20133209228516,101.90206146240234,0.009829372701935419,-0.004356402177556474,0.01856952435137263,-0.09321088296835216
4.785714285714286,67,12,8.98839282989502,7.852982044219971,0.22923951574919568,-2.2331998734012997,-0.022470004358391284,1.6986168237593802
4.785714285714286,67,14,-1.9345550537109375,32.075653076171875,-2.82713206922197,2.59045722565694,-1.5453779492855415,-2.7760863364072974
4.785714285714286,67,15,4.31202507019043,34.10747146606445,0.855927134730874,0.2353960230298631,3.497905921552375,0.9550287487397602
4.785714285714286,67,19,17.06432342529297,14.803730964660645,-1.6729374830099608,-4.385290400754553,-11.892977596108329,-8.781100012298266
4.785714285714286,67,21,-3.384411573410034,2.4028050899505615,1.0260500335725384,3.0165660621478803,-10.076740191413137,-8.261211897288211
4.785714285714286,67,23,10.764851570129395,3.449951410293579,-7.579931799922337,-9.486214059740139,-25.52503482488702,-34.68176591354367
4.785714285714286,67,24,0.5863165259361267,9.807051658630371,2.2741618558289303,3.130572885030128,-0.49606548102136017,-3.84816167413325
4.785714285714286,67,20,-2.8107357025146484,16.55494499206543,1.8947396278381348,6.949184417724609,0.0,0.0
4.785714285714286,67,25,-5.994498252868652,1.7443233728408813,1.2934274673461914,3.988959789276123,0.0,0.0
4.785714285714286,67,26,2.8909690380096436,5.841735363006592,0.0,0.0,0.0,0.0
4.857142857142857,68,3,8.065250396728516,32.49649429321289,0.2115567667271946,-0.5388624828346829,0.9254870522614751,-2.700603118789077
4.857142857142857,68,4,4.244194507598877,32.3507080078125,0.10899629562129998,0.2009966253974133,0.9691754439897643,0.06649942335717908
4.857142857142857,68,6,3.371682643890381,9.302606582641602,4.196370786436445,5.184610579548049,6.940652436560382,8.355246145201424
4.857142857142857,68,9,78.20137023925781,101.90184783935547,0.012575470144568996,-0.0077150711486326665,0.04138742469005069,-0.07925404298739229
4.857142857142857,68,12,8.955606460571289,7.6484055519104,-0.432844544807552,-2.835865720444814,-2.937794025607223,-1.3758280350373677
4.857142857142857,68,14,-2.021867513656616,32.276947021484375,-1.7193044371308608,2.9897573724231465,3.89263251852363,0.21690484301548793
4.857142857142857,68,15,4.29261589050293,34.10184860229492,0.7116709616948578,0.18648984585247266,2.5411086691390983,0.6613170361026822
4.857142857142857,68,19,17.112863540649414,14.666348457336426,-0.222573676020563,-1.6015250536591776,-1.2906385769849693,8.70082901110264
4.857142857142857,68,21,-2.965210437774658,2.91690993309021,2.682541092566484,4.645306383621858,-1.852955907358479,-0.15535624423419478
4.857142857142857,68,23,10.367742538452148,2.949005603790283,-9.967507659559885,-13.278977477672388,-32.29797005929083,-46.07691344104854
4.857142857142857,68,24,0.6817814707756042,9.962701797485352,2.141215026156066,2.8509338024734543,-0.7579275153019149,-3.9897784594616774
4.857142857142857,68,20,-2.5777597427368164,17.122446060180664,3.2616634368896484,7.945014953613281,0.0,0.0
4.857142857142857,68,25,-5.936115264892578,2.1982109546661377,0.8173618316650391,6.354426145553589,0.0,0.0
4.857142857142857,68,26,2.9700381755828857,5.938424587249756,1.1069679260253906,1.3536491394042969,0.0,0.0
4.928571428571429,69,3,8.14407730102539,32.30528259277344,0.35847940731831246,-0.9739907354052181,1.014498574941139,-3.2372874993066336
4.928571428571429,69,4,4.25698709487915,32.35517501831055,0.3172642258477376,0.16298967728742264,1.8466935196133683,-0.07853599191549708
4.928571428571429,69,6,3.5144708156585693,9.492241859436035,3.5269858599937804,4.405103195466766,3.2411193182385962,4.1451205792530414
4.928571428571429,69,9,78.20175170898438,101.90205383300781,0.012491024816839244,-0.00907117652818628,0.04275409128783785,-0.06552170052980966
4.928571428571429,69,12,9.066025733947754,7.638790607452393,-0.17511581859135303,-2.1717819339250237,-1.731361761711495,1.231538954543324
4.928571428571429,69,14,-2.122812271118164,32.404815673828125,-0.7186510282541744,2.8282185932970294,8.30875810610696,0.37650601524684213
4.928571428571429,69,19,17.182653427124023,14.535172462463379,1.2661941220897481,0.6282303236188891,7.852030746417907,21.157472990217197
4.928571428571429,69,21,-2.9482433795928955,3.008129119873047,2.7228270812172264,4.259282719224658,-0.7384032320891833,-1.159447608452914
4.928571428571429,69,23,10.000988006591797,2.4757184982299805,-10.671480956819902,-14.447027480290624,-31.015144149162367,-44.57296630016458
4.928571428571429,69,24,0.8698797225952148,10.238057136535645,2.100842769666179,2.8824460156023526,-0.9993257681446558,-3.1253936836142118
4.928571428571429,69,20,-2.551093101501465,17.466577529907227,0.3733329772949219,4.817840576171875,0.0,0.0
4.928571428571429,69,25,-5.840325355529785,2.6434662342071533,1.3410587310791016,6.233573913574219,0.0,0.0
4.928571428571429,69,26,2.9764182567596436,6.083558082580566,0.08932113647460938,2.0318689346313477,0.0,0.0
5.0,70,3,8.170648574829102,32.24062728881836,0.3538439977862355,-0.958903374855087,0.38041495653551194,-1.5378958489683525
5.0,70,4,4.262845039367676,32.35765075683594,0.4872591287741812,0.15127517447022218,2.555502105922015,0.006752445686983144
5.0,70,6,3.735222578048706,9.748507499694824,2.8897751542028396,3.555093002195464,-0.5124635779119973,-0.6078372104734808
5.0,70,9,78.20178985595703,101.90185546875,0.006332146855442663,-0.012482953027391852,0.009050249392953767,-0.06948809194440833
5.0,70,12,9.14228343963623,7.604918956756592,0.37725642036309465,-1.1919605584126485,0.7079853850912753,4.833066244350617
5.0,70,14,-2.1538002490997314,32.56258010864258,0.5116523683485651,2.517176332277158,13.309995713247096,-0.4283079058155952
5.0,70,19,17.231822967529297,14.385711669921875,2.2636460833999674,1.6713264835965544,13.127369726285629,25.684619369909576
5.0,70,21,-2.143085479736328,3.895205020904541,5.771705201098877,6.913411756182382,11.792323181891577,9.659120207323733
5.0,70,23,9.720602035522461,2.1215133666992188,-9.466473133176105,-12.886456560804893,-21.17886093718874,-30.910448476619774
5.0,70,24,1.0351276397705078,10.495184898376465,2.229556522622597,3.1901575843952372,-0.23620444853861228,-0.9838937523978926
5.0,70,20,-2.5347912311553955,17.842777252197266,0.2282261848449707,5.266796112060547,0.0,0.0
5.0,70,25,-5.8062238693237305,2.984703540802002,0.4774208068847656,4.777322292327881,0.0,0.0
5.0,70,26,2.964099168777466,6.090147018432617,-0.17246723175048828,0.09224510192871094,0.0,0.0
5.071428571428571,71,3,8.180061340332031,32.216590881347656,0.4874781166785998,-1.2950250282945672,1.0011039185368806,-3.018479421547194
5.071428571428571,71,4,4.28851318359375,32.35988998413086,0.5320308813202514,0.06278369597346103,2.34443170812157,-0.36553393709599313
5.071428571428571,71,6,4.002150535583496,10.05424690246582,2.5977990391697117,3.15523981123051,-2.7195527031530577,-3.137859449966613
5.071428571428571,71,9,78.2012939453125,101.90129852294922,-0.008790910393582959,-0.021696132572573544,-0.07103755714937186,-0.10910952852468903
5.071428571428571,71,12,9.19327163696289,7.519269943237305,0.7719901768789299,-0.6274363724894149,2.1657493925978537,6.128153341388339
5.071428571428571,71,21,-1.7132478952407837,4.40612268447876,7.927730772864694,8.619113821744214,19.260414313167278,15.135898324429169
5.071428571428571,71,23,9.414576530456543,1.719231367111206,-7.4323665156763035,-10.22057389943309,-8.484007713601622,-13.634559853583998
5.071428571428571,71,24,1.2929259538650513,10.808012962341309,2.7533619567156946,3.7473611485444867,1.8697455283488513,1.7291639226354965
5.071428571428571,71,20,-2.377535104751587,18.339529037475586,2.2015857696533203,6.954524993896484,0.0,0.0
5.071428571428571,71,25,-5.602664470672607,3.491481304168701,2.8498315811157227,7.094888687133789,0.0,0.0
5.071428571428571,71,26,2.9097840785980225,5.988065242767334,-0.760411262512207,-1.4291448593139648,0.0,0.0
5.142857142857143,72,3,8.184040069580078,32.21141052246094,0.47585608393019235,-1.1896420237965666,0.9744947511627123,-2.473573695240907
5.142857142857143,72,4,4.278014183044434,32.34994125366211,0.33634586755366647,-0.1103791584816042,1.0702751436804194,-1.1098154815011128
5.142857142857143,72,6,4.232892036437988,10.308568000793457,2.286277325184923,2.6418312671737225,-4.906526647841485,-6.102949164751538
5.142857142857143,72,9,78.20088195800781,101.90066528320312,-0.018749056139039526,-0.023996591608396563,-0.11399251747037345,-0.10559602548628987
5.142857142857143,72,12,9.251283645629883,7.441449165344238,1.0963119371704146,-0.2390827759438543,3.2246013116813055,6.701040397642125
5.142857142857143,72,21,-1.6272320747375488,4.5605788230896,7.454712888753745,7.892893426275741,15.322057816837036,10.546482198468489
5.142857142857143,72,23,9.178624153137207,1.4109278917312622,-4.82250626977811,-6.617059832050207,5.365732692125934,6.02183077921505
5.142857142857143,72,24,1.5475953817367554,11.113810539245605,3.3677331360089195,4.305598275034574,4.029307802267234,4.016149418746136
5.142857142857143,72,20,-2.286759853363037,18.742422103881836,0.8368086473254939,5.48593249080452,-3.713504703875614,-4.156778321666339
5.142857142857143,72,25,-5.547427177429199,3.8354439735412598,0.7733221054077148,4.81547737121582,0.0,0.0
5.142857142857143,72,26,2.8720879554748535,5.92465353012085,-0.5277457237243652,-0.8877639770507812,0.0,0.0
5.214285714285714,73,3,8.181635856628418,32.2191047668457,0.39506341734983946,-0.8887355579729485,0.74605184874393,-1.3176395460370849
5.214285714285714,73,4,4.273061275482178,32.340885162353516,0.0965392766175147,-0.28105254083002207,-0.24192470566844435,-1.777739916572402
5.214285714285714,73,6,4.48444128036499,10.589502334594727,2.5113811008401186,2.7439533106261997,-3.874703214598872,-5.391000583460789
5.214285714285714,73,9,78.20284271240234,101.90338897705078,-0.008460504676430914,-0.001221901171160271,-0.058686085234944035,0.011192601791406164
5.214285714285714,73,12,9.291439056396484,7.359650611877441,1.3899911021754392,0.012227481626550851,4.409896013423766,6.900670195177129
5.214285714285714,73,21,-1.8064124584197998,4.449355602264404,4.521364626536682,5.049225251885078,2.365622947898211,-1.027953423743217
5.214285714285714,73,23,8.840898513793945,0.9606141448020935,-2.6149959690070754,-3.3861119606690786,16.49540013533371,22.89672099519092
5.214285714285714,73,24,1.7158454656600952,11.348762512207031,3.3981385244250473,4.347716434688767,3.437388993799695,3.7855766477627926
5.214285714285714,73,25,-5.2440876960754395,4.407235622406006,4.246752738952637,8.005083084106445,0.0,0.0
5.214285714285714,73,26,2.879826307296753,5.940332412719727,0.1083369255065918,0.21950435638427734,0.0,0.0
5.285714285714286,74,3,8.178703308105469,32.22622299194336,0.026257926622244646,-0.040943454693179934,-1.1382584094760262,2.907545813728176
5.285714285714286,74,4,4.262031555175781,32.33760070800781,-0.10032762091864472,-0.34422503673231514,-1.0901800100979613,-1.8513216850082341
5.285714285714286,74,6,4.712543487548828,10.836065292358398,3.0944887005755453,3.3155206529582832,-0.5218734108304639,-1.6353710084899713
5.285714285714286,74,9,78.20167541503906,101.90142059326172,-0.0003399622784178843,0.009050292226406829,-3.748337908136574e-05,0.07721380326620657
5.285714285714286,74,12,9.335200309753418,7.292323589324951,1.3613030310749128,-0.03850341840110444,3.793218135593868,5.516077434555089
5.285714285714286,74,21,-1.9816330671310425,4.341804027557373,0.39547797705892834,1.0593049266018861,-14.67988988153291,-16.643488580929336
5.285714285714286,74,23,8.533159255981445,0.556888222694397,-1.314327142976604,-1.4236830951471136,21.731806653896836,31.275369479855257
5.285714285714286,74,24,1.9346128702163696,11.641460418701172,3.3188720725102785,4.220904372096862,2.2711405349457956,2.384415541659011
5.285714285714286,74,25,-5.029809474945068,4.961094856262207,2.9998950958251953,7.754029273986816,0.0,0.0
5.285714285714286,74,26,2.903280019760132,6.001585006713867,0.3283519744873047,0.8575363159179688,0.0,0.0
5.285714285714286,74,20,-1.9931036233901978,19.66520118713379,1.7829445480241526,6.122495591270837,1.053889678823928,-0.20927365572992418
5.357142857142857,75,3,8.137746810913086,32.36402893066406,-0.4161238216047727,1.210095726187024,-2.940366530670193,7.9273640003081365
5.357142857142857,75,4,4.264004707336426,32.34012985229492,-0.22930374058803396,-0.2622831679276659,-1.5985288480947217,-1.1919838975810013
5.357142857142857,75,6,4.944162845611572,11.06332015991211,3.5902868092050086,3.683413797014595,2.205816530833696,0.9591594605424254
5.357142857142857,75,9,78.20122528076172,101.90088653564453,0.0034588695031573073,0.013239628309832021,0.03078752213744142,0.1041055241107032
5.357142857142857,75,12,9.30292797088623,7.126195430755615,0.8092472174468174,-0.7226971315542741,1.0310285375488004,1.700676755008489
5.357142857142857,75,21,-2.153878927230835,4.228874206542969,-4.265888011028992,-3.5489874947631668,-33.77074450886734,-34.949204400413855
5.357142857142857,75,23,8.250948905944824,0.1894979178905487,-0.7529002855785626,-0.5826802261277122,22.38836619049662,32.52869286763126
5.357142857142857,75,24,2.1796257495880127,11.957797050476074,3.4616259564018965,4.385577240001454,2.358858825154739,2.580405641884815
5.357142857142857,75,25,-4.961339950561523,5.332673072814941,0.9585733413696289,5.202095031738281,0.0,0.0
5.357142857142857,75,26,2.91988468170166,6.018923282623291,0.23246526718139648,0.2427358627319336,0.0,0.0
5.428571428571429,76,3,8.173989295959473,32.25771713256836,-0.4173530585325684,1.2164257508897405,-2.6746428102748125,7.281040531118314
5.428571428571429,76,4,4.266918659210205,32.34679412841797,-0.25914482347565326,-0.06802438774633936,-1.5845981118905128,-0.033491104915582506
5.428571428571429,76,6,5.186416149139404,11.316818237304688,3.8885854102667277,3.86698489309418,3.5711340253348887,2.1379677435451927
5.428571428571429,76,9,78.20008087158203,101.89957427978516,-0.004549024252150185,0.00022413248361508953,-0.004285698263643918,0.03383312733703776
5.428571428571429,76,12,9.342744827270508,7.055893898010254,0.27547129874293314,-1.3543230973237754,-1.7765538535447465,-1.9333873641376882
5.428571428571429,76,21,-1.912609577178955,4.561120986938477,-5.605179003376025,-4.660258503546165,-37.02931220133501,-36.821636147148986
5.428571428571429,76,23,7.963027477264404,-0.19130514562129974,-1.4878860142275754,-1.6280316269311887,15.604856689111937,22.90131871226215
5.428571428571429,76,24,2.288182020187378,12.117630004882812,2.9294030234783945,3.8257387557859763,-0.19841143818896612,-0.01435805110255674
5.428571428571429,76,25,-4.707568645477295,5.878539085388184,3.552798271179199,7.642124176025391,0.0,0.0
5.428571428571429,76,26,2.906812906265259,6.019418716430664,-0.18300485610961914,0.006936073303222656,0.0,0.0
5.5,77,3,8.183792114257812,32.22136306762695,-0.2892974350786887,0.8445534443204131,-1.7804285066699572,4.9012866895245155
5.5,77,4,4.253646373748779,32.340911865234375,-0.32163388439013146,0.07552214197836885,-1.6806180063595417,0.8113582413536313
5.5,77,6,5.454375743865967,11.600399017333984,3.940947128317169,3.902302526800357,3.1495558060013082,1.9493187136719936
5.5,77,9,78.20013427734375,101.89966583251953,-0.007163058178903886,-0.0061000710816711485,-0.014551955768943206,-0.0026343620363476076
5.5,77,12,9.36768913269043,6.977792739868164,-0.17828155598770387,-1.8973779351303761,-4.007235576903849,-4.963305182526556
5.5,77,21,-1.8258707523345947,4.697902202606201,-4.846845625697315,-3.8703714694103195,-29.273479102184197,-28.74045114225937
5.5,77,23,7.711278438568115,-0.5526952147483826,-2.4921250832585993,-3.1375242864114514,7.7151054770221466,11.534312242229168
5.5,77,24,2.436229705810547,12.300616264343262,2.377163302493289,3.127914111059207,-2.440131084715337,-2.7667337161563634
5.5,77,25,-4.8009490966796875,6.085721492767334,-1.307326316833496,2.9005537033081055,0.0,0.0
5.5,77,26,2.880408525466919,5.96671199798584,-0.3696613311767578,-0.7378940582275391,0.0,0.0
5.5,77,15,4.211278438568115,34.085472106933594,0.0,0.0,0.0,0.0
5.5,77,20,-2.1833205223083496,20.620819091796875,-1.2423574014341892,4.171404524146806,-10.20220490470488,-6.856877925348995
5.571428571428571,78,3,8.182695388793945,32.21965026855469,-0.1941017708187975,0.42673040607064433,-1.1101855996747831,2.2984327217518032
5.571428571428571,78,4,4.230349540710449,32.329471588134766,-0.3192445933169738,0.05095242614907799,-1.2487936489782796,0.683139841301635
5.571428571428571,78,6,5.731916904449463,11.874019622802734,3.986525232106239,3.9095711241780378,2.597227883734447,1.5534183953863512
5.571428571428571,78,9,78.19940185546875,101.89897918701172,-0.01166364114525949,-0.013826115798224368,-0.03363934684991152,-0.04391148463210404
5.571428571428571,78,12,9.33819580078125,6.831259727478027,-0.5240714847292101,-2.244542367597813,-4.97210938178915,-5.996549438267539
5.571428571428571,78,21,-1.2760486602783203,5.322681427001953,-0.045180835650159845,1.0099755552309684,-3.76320365111761,-2.8012423003481652
5.571428571428571,78,23,7.518986225128174,-0.8130480051040649,-3.79562652856239,-5.163745587944221,-1.9663136121674196,-2.980925953555998
5.571428571428571,78,24,2.6919612884521484,12.581622123718262,2.345880794181712,2.8971869152395677,-2.5308905558378543,-3.4792302166654374
5.571428571428571,78,25,-4.5281853675842285,6.648096084594727,2.1902716933372286,5.980621168763593,0.16837847059006394,-2.349728500681133
5.571428571428571,78,26,2.742452621459961,5.794649600982666,-1.931382656097412,-2.4088735580444336,0.0,0.0
5.571428571428571,78,15,4.208791255950928,34.08506393432617,-0.034820556640625,-0.00571441650390625,0.0,0.0
5.571428571428571,78,20,-2.1392979621887207,21.035823822021484,-1.427775958749302,4.320207984132709,-9.368106709136727,-4.910295388797317
5.642857142857143,79,3,8.188603401184082,32.202720642089844,-0.018703308100666033,-0.10345634807587792,-0.05425875363116478,-0.7251715451519861
5.642857142857143,79,4,4.21560001373291,32.33165740966797,-0.2710926495586124,0.018748322862812264,-0.63860798457446,0.42384861197632745
5.642857142857143,79,6,6.018736362457275,12.178181648254395,4.118780689831264,4.166878089126456,2.542458750483626,2.3999755311815902
5.642857142857143,79,9,78.1993179321289,101.8989486694336,-0.01083382877750072,-0.01412301841123514,-0.026090822369082244,-0.044641229123281036
5.642857142857143,79,12,9.313582420349121,6.6632771492004395,-0.8542412979150801,-2.7280052060635005,-5.732604871148567,-7.3764644035926015
5.642857142857143,79,21,-0.9153798818588257,5.708527088165283,4.728228475493331,5.640508482039459,19.154871099794647,19.623986152382198
5.642857142857143,79,23,7.262967586517334,-1.095569372177124,-4.324063202394674,-5.747613635349339,-5.71261895128449,-7.749207622520096
5.642857142857143,79,24,2.8849141597747803,12.794792175292969,2.211757999024035,2.5373043270791937,-3.2038319382372458,-4.819606993892335
5.642857142857143,79,25,-4.093340873718262,7.315616130828857,2.9672572670698902,6.539877516331938,1.777801909477825,-1.07652805359775
5.642857142857143,79,26,2.7955539226531982,5.979347229003906,0.7434182167053223,2.5857667922973633,0.0,0.0
5.642857142857143,79,15,4.205462455749512,34.083648681640625,-0.04660320281982422,-0.01981353759765625,0.0,0.0
5.642857142857143,79,20,-2.117314338684082,21.428316116333008,-1.3196899249627863,4.543390817651885,-7.579111494509783,-3.1954836291600235
5.642857142857143,79,28,-4.295517444610596,-1.055772304534912,0.0,0.0,0.0,0.0
5.714285714285714,80,3,8.186415672302246,32.203426361083984,0.14522544654824765,-0.5470758733467412,0.9282918482225113,-3.214022617714041
5.714285714285714,80,4,4.201697826385498,32.32440185546875,-0.2814516613826065,-0.01165341955343318,-0.507254261536682,0.24965198607016595
5.714285714285714,80,6,6.2472028732299805,12.40389633178711,3.6478933159861904,3.694690955430433,-0.4958216375654957,-0.4938393396728228
5.714285714285714,80,9,78.20015716552734,101.90027618408203,-0.002907861511744015,-0.0018405143953108567,0.010069093852844792,0.012443354525997853
5.714285714285714,80,12,9.261789321899414,6.44634485244751,-1.17180809440058,-3.2848623234442322,-6.198305258024535,-8.544810332743694
5.714285714285714,80,21,-0.35545799136161804,6.301461696624756,9.12835255269605,9.76902860498959,36.657858029180055,35.98762278571208
5.714285714285714,80,23,7.016612529754639,-1.448701024055481,-3.8800444951583857,-5.084866624480384,-3.0509136700041837,-3.7400687069315888
5.714285714285714,80,24,3.1492807865142822,13.087409973144531,2.488825526050392,2.6146490147150794,-2.094742609335001,-4.316574046334838
5.714285714285714,80,25,-4.079875946044922,7.639847755432129,2.558993742616619,6.339625479603849,-0.6047093737599094,-1.8118723659673786
5.714285714285714,80,15,4.199558734893799,34.08077621459961,-0.08265209197998047,-0.04021453857421875,0.0,0.0
5.714285714285714,80,20,-2.0247230529785156,21.86703872680664,-0.2608949584598871,5.334109287636022,-1.403808066927636,1.0467371616970569
5.714285714285714,80,28,-4.287962913513184,-0.744491696357727,0.10576343536376953,4.357928514480591,0.0,0.0
5.785714285714286,81,3,8.186357498168945,32.19699478149414,0.26106332533921467,-0.8511351744733096,1.574749758161039,-4.759129909248275
5.785714285714286,81,4,4.186060905456543,32.32112503051758,-0.2633956807411335,-0.030090752849781476,-0.25657364901377117,0.14218360398410188
5.785714285714286,81,6,6.509043216705322,12.653371810913086,3.411134905555002,3.40565471643574,-1.8895284629695612,-1.9378497357222308
5.785714285714286,81,9,78.20069122314453,101.90113067626953,0.006211796577318162,0.011485628012937166,0.048531633457337874,0.06960000507416705
5.785714285714286,81,12,9.370830535888672,6.551202774047852,-0.2442689462185172,-1.7870328894647585,-0.862182053325796,-0.5479220845340979
5.785714285714286,81,21,0.14484970271587372,6.849505424499512,12.469646295269461,12.918125675664385,47.588531972685836,46.16186470107974
5.785714285714286,81,23,6.7512407302856445,-1.816044569015503,-3.291177029543344,-4.2953791475478855,0.6779114299830642,1.4278041347074832
5.785714285714286,81,24,3.4590439796447754,13.391672134399414,3.3983900696488782,3.3251986958701845,1.978101277513217,-0.5938607897214164
5.785714285714286,81,25,-4.144730091094971,7.901453495025635,1.1760508786579214,5.421412412312567,-6.163740706359863,-4.808542812451899
5.785714285714286,81,15,4.192813396453857,34.07874298095703,-0.09443473815917969,-0.02846527099609375,0.0,0.0
5.785714285714286,81,20,-1.9678765535354614,22.27347183227539,0.44691828581753085,5.720266253513581,1.9829646447844524,2.5395667864205684
